experiment,ID,trial,question,choice_1,choice_2,choice_3,choice_4,mentalization,physical,movement,context,response_type,response,RT,ACC
sat_mc_2_with_sound,6237,3,Mit csinál az ovális és a téglalap?,Összeütköznek,Vitatkoznak,Táncolnak,Játszanak,2,1,3,4,mentalization,2,2.81417,1
sat_mc_2_with_sound,6237,4,Miért megy a háromszög a sarokba?,Mert örül,Aludni,Mert oda jobban oda illik,Mert meg van rémülve,4,3,1,2,mentalization,4,4.880065,1
sat_mc_2_with_sound,6237,5,Miért megy el a téglalap?,Mert dühös,Mert keres valamit,Mert boldog,"Azért, hogy csak ketten maradjanak itt",1,4,3,2,mentalization,1,4.810505,1
sat_mc_2_with_sound,6237,6,Miért megy oda az ovális a háromszöghöz?,Hogy leszidja,Hogy veszekedjenek,Hogy megnyugtassa,Hogy közel legyenek egymáshoz,3,4,2,1,mentalization,3,3.77496,1
sat_mc_2_with_sound,6237,9,Miért van a téglalap a háromszög és az ovális között?,Hogy elzárja a háromszöget az oválistól,Hogy ugyanakkora távolságra legyenek egymástól.,Hogy az ovális tudjon játszani,Mert a háromszög fél az oválistól,1,2,3,4,mentalization,1,10.21788,1
sat_mc_2_with_sound,6237,13,Mit csinál a háromszög?,A nagy téglalapon kívülre megy,Táncol,Vitatkozik,Menekül,4,1,2,3,mentalization,4,3.66804,1
sat_mc_2_with_sound,6130,3,Mit csinál az ovális és a téglalap?,Összeütköznek,Vitatkoznak,Táncolnak,Játszanak,2,1,3,4,context,4,6.71294,0
sat_mc_2_with_sound,6130,4,Miért megy a háromszög a sarokba?,Mert örül,Aludni,Mert oda jobban oda illik,Mert meg van rémülve,4,3,1,2,mentalization,4,13.261535,1
sat_mc_2_with_sound,6130,5,Miért megy el a téglalap?,Mert dühös,Mert keres valamit,Mert boldog,"Azért, hogy csak ketten maradjanak itt",1,4,3,2,physical,4,6.203475,0
sat_mc_2_with_sound,6130,6,Miért megy oda az ovális a háromszöghöz?,Hogy leszidja,Hogy veszekedjenek,Hogy megnyugtassa,Hogy közel legyenek egymáshoz,3,4,2,1,mentalization,3,4.29879,1
sat_mc_2_with_sound,6130,9,Miért van a téglalap a háromszög és az ovális között?,Hogy elzárja a háromszöget az oválistól,Hogy ugyanakkora távolságra legyenek egymástól.,Hogy az ovális tudjon játszani,Mert a háromszög fél az oválistól,1,2,3,4,movement,3,8.99164,0
sat_mc_2_with_sound,6130,13,Mit csinál a háromszög?,A nagy téglalapon kívülre megy,Táncol,Vitatkozik,Menekül,4,1,2,3,physical,1,3.381985,0
sat_mc_2_with_sound,6113,3,Mit csinál az ovális és a téglalap?,Összeütköznek,Vitatkoznak,Táncolnak,Játszanak,2,1,3,4,mentalization,2,4.36945,1
sat_mc_2_with_sound,6113,4,Miért megy a háromszög a sarokba?,Mert örül,Aludni,Mert oda jobban oda illik,Mert meg van rémülve,4,3,1,2,mentalization,4,4.33585,1
sat_mc_2_with_sound,6113,5,Miért megy el a téglalap?,Mert dühös,Mert keres valamit,Mert boldog,"Azért, hogy csak ketten maradjanak itt",1,4,3,2,mentalization,1,6.758020001,1
sat_mc_2_with_sound,6113,6,Miért megy oda az ovális a háromszöghöz?,Hogy leszidja,Hogy veszekedjenek,Hogy megnyugtassa,Hogy közel legyenek egymáshoz,3,4,2,1,mentalization,3,4.08665,1
sat_mc_2_with_sound,6113,9,Miért van a téglalap a háromszög és az ovális között?,Hogy elzárja a háromszöget az oválistól,Hogy ugyanakkora távolságra legyenek egymástól.,Hogy az ovális tudjon játszani,Mert a háromszög fél az oválistól,1,2,3,4,mentalization,1,14.874445,1
sat_mc_2_with_sound,6113,13,Mit csinál a háromszög?,A nagy téglalapon kívülre megy,Táncol,Vitatkozik,Menekül,4,1,2,3,mentalization,4,5.052759999,1
sat_mc_2_with_sound,6112,3,Mit csinál az ovális és a téglalap?,Összeütköznek,Vitatkoznak,Táncolnak,Játszanak,2,1,3,4,physical,1,8.799,0
sat_mc_2_with_sound,6112,4,Miért megy a háromszög a sarokba?,Mert örül,Aludni,Mert oda jobban oda illik,Mert meg van rémülve,4,3,1,2,mentalization,4,8.25356,1
sat_mc_2_with_sound,6112,5,Miért megy el a téglalap?,Mert dühös,Mert keres valamit,Mert boldog,"Azért, hogy csak ketten maradjanak itt",1,4,3,2,mentalization,1,9.85431,1
sat_mc_2_with_sound,6112,6,Miért megy oda az ovális a háromszöghöz?,Hogy leszidja,Hogy veszekedjenek,Hogy megnyugtassa,Hogy közel legyenek egymáshoz,3,4,2,1,mentalization,3,4.41236,1
sat_mc_2_with_sound,6112,9,Miért van a téglalap a háromszög és az ovális között?,Hogy elzárja a háromszöget az oválistól,Hogy ugyanakkora távolságra legyenek egymástól.,Hogy az ovális tudjon játszani,Mert a háromszög fél az oválistól,1,2,3,4,physical,2,6.489455,0
sat_mc_2_with_sound,6112,13,Mit csinál a háromszög?,A nagy téglalapon kívülre megy,Táncol,Vitatkozik,Menekül,4,1,2,3,movement,2,6.822915,0
sat_mc_2_with_sound,6111,3,Mit csinál az ovális és a téglalap?,Összeütköznek,Vitatkoznak,Táncolnak,Játszanak,2,1,3,4,mentalization,2,6.41947,1
sat_mc_2_with_sound,6111,4,Miért megy a háromszög a sarokba?,Mert örül,Aludni,Mert oda jobban oda illik,Mert meg van rémülve,4,3,1,2,mentalization,4,9.87696,1
sat_mc_2_with_sound,6111,5,Miért megy el a téglalap?,Mert dühös,Mert keres valamit,Mert boldog,"Azért, hogy csak ketten maradjanak itt",1,4,3,2,physical,4,6.667815,0
sat_mc_2_with_sound,6111,6,Miért megy oda az ovális a háromszöghöz?,Hogy leszidja,Hogy veszekedjenek,Hogy megnyugtassa,Hogy közel legyenek egymáshoz,3,4,2,1,mentalization,3,4.612445,1
sat_mc_2_with_sound,6111,9,Miért van a téglalap a háromszög és az ovális között?,Hogy elzárja a háromszöget az oválistól,Hogy ugyanakkora távolságra legyenek egymástól.,Hogy az ovális tudjon játszani,Mert a háromszög fél az oválistól,1,2,3,4,context,4,16.709415,0
sat_mc_2_with_sound,6111,13,Mit csinál a háromszög?,A nagy téglalapon kívülre megy,Táncol,Vitatkozik,Menekül,4,1,2,3,physical,1,14.600435,0
sat_mc_2_with_sound,6132,3,Mit csinál az ovális és a téglalap?,Összeütköznek,Vitatkoznak,Táncolnak,Játszanak,2,1,3,4,mentalization,2,4.78823,1
sat_mc_2_with_sound,6132,4,Miért megy a háromszög a sarokba?,Mert örül,Aludni,Mert oda jobban oda illik,Mert meg van rémülve,4,3,1,2,mentalization,4,5.21957,1
sat_mc_2_with_sound,6132,5,Miért megy el a téglalap?,Mert dühös,Mert keres valamit,Mert boldog,"Azért, hogy csak ketten maradjanak itt",1,4,3,2,mentalization,1,5.79458,1
sat_mc_2_with_sound,6132,6,Miért megy oda az ovális a háromszöghöz?,Hogy leszidja,Hogy veszekedjenek,Hogy megnyugtassa,Hogy közel legyenek egymáshoz,3,4,2,1,mentalization,3,3.409255,1
sat_mc_2_with_sound,6132,9,Miért van a téglalap a háromszög és az ovális között?,Hogy elzárja a háromszöget az oválistól,Hogy ugyanakkora távolságra legyenek egymástól.,Hogy az ovális tudjon játszani,Mert a háromszög fél az oválistól,1,2,3,4,mentalization,1,13.956615,1
sat_mc_2_with_sound,6132,13,Mit csinál a háromszög?,A nagy téglalapon kívülre megy,Táncol,Vitatkozik,Menekül,4,1,2,3,mentalization,4,5.231195,1
sat_mc_2_with_sound,6138,3,Mit csinál az ovális és a téglalap?,Összeütköznek,Vitatkoznak,Táncolnak,Játszanak,2,1,3,4,context,4,4.66995,0
sat_mc_2_with_sound,6138,4,Miért megy a háromszög a sarokba?,Mert örül,Aludni,Mert oda jobban oda illik,Mert meg van rémülve,4,3,1,2,mentalization,4,16.41318,1
sat_mc_2_with_sound,6138,5,Miért megy el a téglalap?,Mert dühös,Mert keres valamit,Mert boldog,"Azért, hogy csak ketten maradjanak itt",1,4,3,2,physical,4,8.31671,0
sat_mc_2_with_sound,6138,6,Miért megy oda az ovális a háromszöghöz?,Hogy leszidja,Hogy veszekedjenek,Hogy megnyugtassa,Hogy közel legyenek egymáshoz,3,4,2,1,mentalization,3,7.671365,1
sat_mc_2_with_sound,6138,9,Miért van a téglalap a háromszög és az ovális között?,Hogy elzárja a háromszöget az oválistól,Hogy ugyanakkora távolságra legyenek egymástól.,Hogy az ovális tudjon játszani,Mert a háromszög fél az oválistól,1,2,3,4,mentalization,1,9.64917,1
sat_mc_2_with_sound,6138,13,Mit csinál a háromszög?,A nagy téglalapon kívülre megy,Táncol,Vitatkozik,Menekül,4,1,2,3,mentalization,4,7.697125,1
sat_mc_2_with_sound,6115,3,Mit csinál az ovális és a téglalap?,Összeütköznek,Vitatkoznak,Táncolnak,Játszanak,2,1,3,4,physical,1,11.558495,0
sat_mc_2_with_sound,6115,4,Miért megy a háromszög a sarokba?,Mert örül,Aludni,Mert oda jobban oda illik,Mert meg van rémülve,4,3,1,2,mentalization,4,9.82278,1
sat_mc_2_with_sound,6115,5,Miért megy el a téglalap?,Mert dühös,Mert keres valamit,Mert boldog,"Azért, hogy csak ketten maradjanak itt",1,4,3,2,mentalization,1,5.288665,1
sat_mc_2_with_sound,6115,6,Miért megy oda az ovális a háromszöghöz?,Hogy leszidja,Hogy veszekedjenek,Hogy megnyugtassa,Hogy közel legyenek egymáshoz,3,4,2,1,mentalization,3,6.226945,1
sat_mc_2_with_sound,6115,9,Miért van a téglalap a háromszög és az ovális között?,Hogy elzárja a háromszöget az oválistól,Hogy ugyanakkora távolságra legyenek egymástól.,Hogy az ovális tudjon játszani,Mert a háromszög fél az oválistól,1,2,3,4,mentalization,1,7.1864,1
sat_mc_2_with_sound,6115,13,Mit csinál a háromszög?,A nagy téglalapon kívülre megy,Táncol,Vitatkozik,Menekül,4,1,2,3,mentalization,4,4.297825,1
sat_mc_2_with_sound,6116,3,Mit csinál az ovális és a téglalap?,Összeütköznek,Vitatkoznak,Táncolnak,Játszanak,2,1,3,4,mentalization,2,11.725955,1
sat_mc_2_with_sound,6116,4,Miért megy a háromszög a sarokba?,Mert örül,Aludni,Mert oda jobban oda illik,Mert meg van rémülve,4,3,1,2,mentalization,4,9.489665,1
sat_mc_2_with_sound,6116,5,Miért megy el a téglalap?,Mert dühös,Mert keres valamit,Mert boldog,"Azért, hogy csak ketten maradjanak itt",1,4,3,2,mentalization,1,10.80828,1
sat_mc_2_with_sound,6116,6,Miért megy oda az ovális a háromszöghöz?,Hogy leszidja,Hogy veszekedjenek,Hogy megnyugtassa,Hogy közel legyenek egymáshoz,3,4,2,1,mentalization,3,7.67545,1
sat_mc_2_with_sound,6116,9,Miért van a téglalap a háromszög és az ovális között?,Hogy elzárja a háromszöget az oválistól,Hogy ugyanakkora távolságra legyenek egymástól.,Hogy az ovális tudjon játszani,Mert a háromszög fél az oválistól,1,2,3,4,context,4,20.18723,0
sat_mc_2_with_sound,6116,13,Mit csinál a háromszög?,A nagy téglalapon kívülre megy,Táncol,Vitatkozik,Menekül,4,1,2,3,mentalization,4,5.44821,1
sat_mc_2_with_sound,6114,3,Mit csinál az ovális és a téglalap?,Összeütköznek,Vitatkoznak,Táncolnak,Játszanak,2,1,3,4,physical,1,2.89545,0
sat_mc_2_with_sound,6114,4,Miért megy a háromszög a sarokba?,Mert örül,Aludni,Mert oda jobban oda illik,Mert meg van rémülve,4,3,1,2,mentalization,4,5.81971,1
sat_mc_2_with_sound,6114,5,Miért megy el a téglalap?,Mert dühös,Mert keres valamit,Mert boldog,"Azért, hogy csak ketten maradjanak itt",1,4,3,2,movement,3,1.29098,0
sat_mc_2_with_sound,6114,6,Miért megy oda az ovális a háromszöghöz?,Hogy leszidja,Hogy veszekedjenek,Hogy megnyugtassa,Hogy közel legyenek egymáshoz,3,4,2,1,mentalization,3,3.495145,1
sat_mc_2_with_sound,6114,9,Miért van a téglalap a háromszög és az ovális között?,Hogy elzárja a háromszöget az oválistól,Hogy ugyanakkora távolságra legyenek egymástól.,Hogy az ovális tudjon játszani,Mert a háromszög fél az oválistól,1,2,3,4,physical,2,60.330205,0
sat_mc_2_with_sound,6114,13,Mit csinál a háromszög?,A nagy téglalapon kívülre megy,Táncol,Vitatkozik,Menekül,4,1,2,3,mentalization,4,4.438945,1
sat_mc_2_with_sound,6117,3,Mit csinál az ovális és a téglalap?,Összeütköznek,Vitatkoznak,Táncolnak,Játszanak,2,1,3,4,mentalization,2,10.610585,1
sat_mc_2_with_sound,6117,4,Miért megy a háromszög a sarokba?,Mert örül,Aludni,Mert oda jobban oda illik,Mert meg van rémülve,4,3,1,2,mentalization,4,10.73682,1
sat_mc_2_with_sound,6117,5,Miért megy el a téglalap?,Mert dühös,Mert keres valamit,Mert boldog,"Azért, hogy csak ketten maradjanak itt",1,4,3,2,mentalization,1,4.7279,1
sat_mc_2_with_sound,6117,6,Miért megy oda az ovális a háromszöghöz?,Hogy leszidja,Hogy veszekedjenek,Hogy megnyugtassa,Hogy közel legyenek egymáshoz,3,4,2,1,mentalization,3,7.15843,1
sat_mc_2_with_sound,6117,9,Miért van a téglalap a háromszög és az ovális között?,Hogy elzárja a háromszöget az oválistól,Hogy ugyanakkora távolságra legyenek egymástól.,Hogy az ovális tudjon játszani,Mert a háromszög fél az oválistól,1,2,3,4,physical,2,12.500565,0
sat_mc_2_with_sound,6117,13,Mit csinál a háromszög?,A nagy téglalapon kívülre megy,Táncol,Vitatkozik,Menekül,4,1,2,3,mentalization,4,6.079795,1
sat_mc_2_with_sound,6120,3,Mit csinál az ovális és a téglalap?,Összeütköznek,Vitatkoznak,Táncolnak,Játszanak,2,1,3,4,physical,1,4.334415,0
sat_mc_2_with_sound,6120,4,Miért megy a háromszög a sarokba?,Mert örül,Aludni,Mert oda jobban oda illik,Mert meg van rémülve,4,3,1,2,mentalization,4,9.881815,1
sat_mc_2_with_sound,6120,5,Miért megy el a téglalap?,Mert dühös,Mert keres valamit,Mert boldog,"Azért, hogy csak ketten maradjanak itt",1,4,3,2,mentalization,1,16.860755,1
sat_mc_2_with_sound,6120,6,Miért megy oda az ovális a háromszöghöz?,Hogy leszidja,Hogy veszekedjenek,Hogy megnyugtassa,Hogy közel legyenek egymáshoz,3,4,2,1,mentalization,3,6.046475,1
sat_mc_2_with_sound,6120,9,Miért van a téglalap a háromszög és az ovális között?,Hogy elzárja a háromszöget az oválistól,Hogy ugyanakkora távolságra legyenek egymástól.,Hogy az ovális tudjon játszani,Mert a háromszög fél az oválistól,1,2,3,4,physical,2,14.92953,0
sat_mc_2_with_sound,6120,13,Mit csinál a háromszög?,A nagy téglalapon kívülre megy,Táncol,Vitatkozik,Menekül,4,1,2,3,physical,1,4.84662,0
sat_mc_2_with_sound,6118,3,Mit csinál az ovális és a téglalap?,Összeütköznek,Vitatkoznak,Táncolnak,Játszanak,2,1,3,4,mentalization,2,2.691305,1
sat_mc_2_with_sound,6118,4,Miért megy a háromszög a sarokba?,Mert örül,Aludni,Mert oda jobban oda illik,Mert meg van rémülve,4,3,1,2,mentalization,4,5.916665,1
sat_mc_2_with_sound,6118,5,Miért megy el a téglalap?,Mert dühös,Mert keres valamit,Mert boldog,"Azért, hogy csak ketten maradjanak itt",1,4,3,2,mentalization,1,6.814595,1
sat_mc_2_with_sound,6118,6,Miért megy oda az ovális a háromszöghöz?,Hogy leszidja,Hogy veszekedjenek,Hogy megnyugtassa,Hogy közel legyenek egymáshoz,3,4,2,1,context,1,9.04305,0
sat_mc_2_with_sound,6118,9,Miért van a téglalap a háromszög és az ovális között?,Hogy elzárja a háromszöget az oválistól,Hogy ugyanakkora távolságra legyenek egymástól.,Hogy az ovális tudjon játszani,Mert a háromszög fél az oválistól,1,2,3,4,context,4,28.10063,0
sat_mc_2_with_sound,6118,13,Mit csinál a háromszög?,A nagy téglalapon kívülre megy,Táncol,Vitatkozik,Menekül,4,1,2,3,mentalization,4,5.52463,1
sat_mc_2_with_sound,6128,3,Mit csinál az ovális és a téglalap?,Összeütköznek,Vitatkoznak,Táncolnak,Játszanak,2,1,3,4,physical,1,3.93382,0
sat_mc_2_with_sound,6128,4,Miért megy a háromszög a sarokba?,Mert örül,Aludni,Mert oda jobban oda illik,Mert meg van rémülve,4,3,1,2,mentalization,4,4.50487,1
sat_mc_2_with_sound,6128,5,Miért megy el a téglalap?,Mert dühös,Mert keres valamit,Mert boldog,"Azért, hogy csak ketten maradjanak itt",1,4,3,2,mentalization,1,6.92014,1
sat_mc_2_with_sound,6128,6,Miért megy oda az ovális a háromszöghöz?,Hogy leszidja,Hogy veszekedjenek,Hogy megnyugtassa,Hogy közel legyenek egymáshoz,3,4,2,1,mentalization,3,5.459585,1
sat_mc_2_with_sound,6128,9,Miért van a téglalap a háromszög és az ovális között?,Hogy elzárja a háromszöget az oválistól,Hogy ugyanakkora távolságra legyenek egymástól.,Hogy az ovális tudjon játszani,Mert a háromszög fél az oválistól,1,2,3,4,context,4,21.336,0
sat_mc_2_with_sound,6128,13,Mit csinál a háromszög?,A nagy téglalapon kívülre megy,Táncol,Vitatkozik,Menekül,4,1,2,3,mentalization,4,4.28644,1
sat_mc_2_with_sound,6129,3,Mit csinál az ovális és a téglalap?,Összeütköznek,Vitatkoznak,Táncolnak,Játszanak,2,1,3,4,physical,1,6.58258,0
sat_mc_2_with_sound,6129,4,Miért megy a háromszög a sarokba?,Mert örül,Aludni,Mert oda jobban oda illik,Mert meg van rémülve,4,3,1,2,mentalization,4,5.729145,1
sat_mc_2_with_sound,6129,5,Miért megy el a téglalap?,Mert dühös,Mert keres valamit,Mert boldog,"Azért, hogy csak ketten maradjanak itt",1,4,3,2,mentalization,1,6.48165,1
sat_mc_2_with_sound,6129,6,Miért megy oda az ovális a háromszöghöz?,Hogy leszidja,Hogy veszekedjenek,Hogy megnyugtassa,Hogy közel legyenek egymáshoz,3,4,2,1,mentalization,3,6.28055,1
sat_mc_2_with_sound,6129,9,Miért van a téglalap a háromszög és az ovális között?,Hogy elzárja a háromszöget az oválistól,Hogy ugyanakkora távolságra legyenek egymástól.,Hogy az ovális tudjon játszani,Mert a háromszög fél az oválistól,1,2,3,4,mentalization,1,3.01263,1
sat_mc_2_with_sound,6129,13,Mit csinál a háromszög?,A nagy téglalapon kívülre megy,Táncol,Vitatkozik,Menekül,4,1,2,3,mentalization,4,2.968275,1
sat_mc_2_with_sound,6135,3,Mit csinál az ovális és a téglalap?,Összeütköznek,Vitatkoznak,Táncolnak,Játszanak,2,1,3,4,mentalization,2,7.765065,1
sat_mc_2_with_sound,6135,4,Miért megy a háromszög a sarokba?,Mert örül,Aludni,Mert oda jobban oda illik,Mert meg van rémülve,4,3,1,2,mentalization,4,7.160265,1
sat_mc_2_with_sound,6135,5,Miért megy el a téglalap?,Mert dühös,Mert keres valamit,Mert boldog,"Azért, hogy csak ketten maradjanak itt",1,4,3,2,mentalization,1,5.662295,1
sat_mc_2_with_sound,6135,6,Miért megy oda az ovális a háromszöghöz?,Hogy leszidja,Hogy veszekedjenek,Hogy megnyugtassa,Hogy közel legyenek egymáshoz,3,4,2,1,mentalization,3,6.59508,1
sat_mc_2_with_sound,6135,9,Miért van a téglalap a háromszög és az ovális között?,Hogy elzárja a háromszöget az oválistól,Hogy ugyanakkora távolságra legyenek egymástól.,Hogy az ovális tudjon játszani,Mert a háromszög fél az oválistól,1,2,3,4,context,4,14.307885,0
sat_mc_2_with_sound,6135,13,Mit csinál a háromszög?,A nagy téglalapon kívülre megy,Táncol,Vitatkozik,Menekül,4,1,2,3,mentalization,4,6.094005,1
sat_mc_2_with_sound,6253,3,Mit csinál az ovális és a téglalap?,Összeütköznek,Vitatkoznak,Táncolnak,Játszanak,2,1,3,4,mentalization,2,10.665125,1
sat_mc_2_with_sound,6253,4,Miért megy a háromszög a sarokba?,Mert örül,Aludni,Mert oda jobban oda illik,Mert meg van rémülve,4,3,1,2,mentalization,4,6.790825,1
sat_mc_2_with_sound,6253,5,Miért megy el a téglalap?,Mert dühös,Mert keres valamit,Mert boldog,"Azért, hogy csak ketten maradjanak itt",1,4,3,2,mentalization,1,11.870455,1
sat_mc_2_with_sound,6253,6,Miért megy oda az ovális a háromszöghöz?,Hogy leszidja,Hogy veszekedjenek,Hogy megnyugtassa,Hogy közel legyenek egymáshoz,3,4,2,1,mentalization,3,11.20928,1
sat_mc_2_with_sound,6253,9,Miért van a téglalap a háromszög és az ovális között?,Hogy elzárja a háromszöget az oválistól,Hogy ugyanakkora távolságra legyenek egymástól.,Hogy az ovális tudjon játszani,Mert a háromszög fél az oválistól,1,2,3,4,mentalization,1,19.44555,1
sat_mc_2_with_sound,6253,13,Mit csinál a háromszög?,A nagy téglalapon kívülre megy,Táncol,Vitatkozik,Menekül,4,1,2,3,mentalization,4,4.5766,1
sat_mc_2_with_sound,6133,3,Mit csinál az ovális és a téglalap?,Összeütköznek,Vitatkoznak,Táncolnak,Játszanak,2,1,3,4,mentalization,2,6.325585,1
sat_mc_2_with_sound,6133,4,Miért megy a háromszög a sarokba?,Mert örül,Aludni,Mert oda jobban oda illik,Mert meg van rémülve,4,3,1,2,physical,3,3.68193,0
sat_mc_2_with_sound,6133,5,Miért megy el a téglalap?,Mert dühös,Mert keres valamit,Mert boldog,"Azért, hogy csak ketten maradjanak itt",1,4,3,2,context,2,8.591035,0
sat_mc_2_with_sound,6133,6,Miért megy oda az ovális a háromszöghöz?,Hogy leszidja,Hogy veszekedjenek,Hogy megnyugtassa,Hogy közel legyenek egymáshoz,3,4,2,1,mentalization,3,4.17484,1
sat_mc_2_with_sound,6133,9,Miért van a téglalap a háromszög és az ovális között?,Hogy elzárja a háromszöget az oválistól,Hogy ugyanakkora távolságra legyenek egymástól.,Hogy az ovális tudjon játszani,Mert a háromszög fél az oválistól,1,2,3,4,mentalization,1,12.325715,1
sat_mc_2_with_sound,6133,13,Mit csinál a háromszög?,A nagy téglalapon kívülre megy,Táncol,Vitatkozik,Menekül,4,1,2,3,mentalization,4,5.5207,1
sat_mc_2_with_sound,6258,3,Mit csinál az ovális és a téglalap?,Összeütköznek,Vitatkoznak,Táncolnak,Játszanak,2,1,3,4,mentalization,2,12.00656,1
sat_mc_2_with_sound,6258,4,Miért megy a háromszög a sarokba?,Mert örül,Aludni,Mert oda jobban oda illik,Mert meg van rémülve,4,3,1,2,mentalization,4,10.670735,1
sat_mc_2_with_sound,6258,5,Miért megy el a téglalap?,Mert dühös,Mert keres valamit,Mert boldog,"Azért, hogy csak ketten maradjanak itt",1,4,3,2,mentalization,1,14.112995,1
sat_mc_2_with_sound,6258,6,Miért megy oda az ovális a háromszöghöz?,Hogy leszidja,Hogy veszekedjenek,Hogy megnyugtassa,Hogy közel legyenek egymáshoz,3,4,2,1,mentalization,3,13.570695,1
sat_mc_2_with_sound,6258,9,Miért van a téglalap a háromszög és az ovális között?,Hogy elzárja a háromszöget az oválistól,Hogy ugyanakkora távolságra legyenek egymástól.,Hogy az ovális tudjon játszani,Mert a háromszög fél az oválistól,1,2,3,4,mentalization,1,17.270775,1
sat_mc_2_with_sound,6258,13,Mit csinál a háromszög?,A nagy téglalapon kívülre megy,Táncol,Vitatkozik,Menekül,4,1,2,3,mentalization,4,13.63016,1
sat_mc_2_with_sound,6250,3,Mit csinál az ovális és a téglalap?,Összeütköznek,Vitatkoznak,Táncolnak,Játszanak,2,1,3,4,mentalization,2,12.045625,1
sat_mc_2_with_sound,6250,4,Miért megy a háromszög a sarokba?,Mert örül,Aludni,Mert oda jobban oda illik,Mert meg van rémülve,4,3,1,2,mentalization,4,10.14605,1
sat_mc_2_with_sound,6250,5,Miért megy el a téglalap?,Mert dühös,Mert keres valamit,Mert boldog,"Azért, hogy csak ketten maradjanak itt",1,4,3,2,mentalization,1,13.958115,1
sat_mc_2_with_sound,6250,6,Miért megy oda az ovális a háromszöghöz?,Hogy leszidja,Hogy veszekedjenek,Hogy megnyugtassa,Hogy közel legyenek egymáshoz,3,4,2,1,mentalization,3,11.802295,1
sat_mc_2_with_sound,6250,9,Miért van a téglalap a háromszög és az ovális között?,Hogy elzárja a háromszöget az oválistól,Hogy ugyanakkora távolságra legyenek egymástól.,Hogy az ovális tudjon játszani,Mert a háromszög fél az oválistól,1,2,3,4,mentalization,1,16.359145,1
sat_mc_2_with_sound,6250,13,Mit csinál a háromszög?,A nagy téglalapon kívülre megy,Táncol,Vitatkozik,Menekül,4,1,2,3,mentalization,4,9.879005,1
sat_mc_2_with_sound,6140,3,Mit csinál az ovális és a téglalap?,Összeütköznek,Vitatkoznak,Táncolnak,Játszanak,2,1,3,4,mentalization,2,5.815115,1
sat_mc_2_with_sound,6140,4,Miért megy a háromszög a sarokba?,Mert örül,Aludni,Mert oda jobban oda illik,Mert meg van rémülve,4,3,1,2,mentalization,4,8.703665,1
sat_mc_2_with_sound,6140,5,Miért megy el a téglalap?,Mert dühös,Mert keres valamit,Mert boldog,"Azért, hogy csak ketten maradjanak itt",1,4,3,2,mentalization,1,5.12372,1
sat_mc_2_with_sound,6140,6,Miért megy oda az ovális a háromszöghöz?,Hogy leszidja,Hogy veszekedjenek,Hogy megnyugtassa,Hogy közel legyenek egymáshoz,3,4,2,1,mentalization,3,5.402245,1
sat_mc_2_with_sound,6140,9,Miért van a téglalap a háromszög és az ovális között?,Hogy elzárja a háromszöget az oválistól,Hogy ugyanakkora távolságra legyenek egymástól.,Hogy az ovális tudjon játszani,Mert a háromszög fél az oválistól,1,2,3,4,context,4,14.14395,0
sat_mc_2_with_sound,6140,13,Mit csinál a háromszög?,A nagy téglalapon kívülre megy,Táncol,Vitatkozik,Menekül,4,1,2,3,physical,1,5.84237,0
sat_mc_2_with_sound,6139,3,Mit csinál az ovális és a téglalap?,Összeütköznek,Vitatkoznak,Táncolnak,Játszanak,2,1,3,4,mentalization,2,3.365905,1
sat_mc_2_with_sound,6139,4,Miért megy a háromszög a sarokba?,Mert örül,Aludni,Mert oda jobban oda illik,Mert meg van rémülve,4,3,1,2,mentalization,4,5.676639999,1
sat_mc_2_with_sound,6139,5,Miért megy el a téglalap?,Mert dühös,Mert keres valamit,Mert boldog,"Azért, hogy csak ketten maradjanak itt",1,4,3,2,mentalization,1,3.1117,1
sat_mc_2_with_sound,6139,6,Miért megy oda az ovális a háromszöghöz?,Hogy leszidja,Hogy veszekedjenek,Hogy megnyugtassa,Hogy közel legyenek egymáshoz,3,4,2,1,mentalization,3,4.396685,1
sat_mc_2_with_sound,6139,9,Miért van a téglalap a háromszög és az ovális között?,Hogy elzárja a háromszöget az oválistól,Hogy ugyanakkora távolságra legyenek egymástól.,Hogy az ovális tudjon játszani,Mert a háromszög fél az oválistól,1,2,3,4,movement,3,19.73411,0
sat_mc_2_with_sound,6139,13,Mit csinál a háromszög?,A nagy téglalapon kívülre megy,Táncol,Vitatkozik,Menekül,4,1,2,3,mentalization,4,4.35186,1
sat_mc_2_with_sound,6134,3,Mit csinál az ovális és a téglalap?,Összeütköznek,Vitatkoznak,Táncolnak,Játszanak,2,1,3,4,mentalization,2,10.491515,1
sat_mc_2_with_sound,6134,4,Miért megy a háromszög a sarokba?,Mert örül,Aludni,Mert oda jobban oda illik,Mert meg van rémülve,4,3,1,2,mentalization,4,8.325865,1
sat_mc_2_with_sound,6134,5,Miért megy el a téglalap?,Mert dühös,Mert keres valamit,Mert boldog,"Azért, hogy csak ketten maradjanak itt",1,4,3,2,mentalization,1,20.382575,1
sat_mc_2_with_sound,6134,6,Miért megy oda az ovális a háromszöghöz?,Hogy leszidja,Hogy veszekedjenek,Hogy megnyugtassa,Hogy közel legyenek egymáshoz,3,4,2,1,mentalization,3,6.75715,1
sat_mc_2_with_sound,6134,9,Miért van a téglalap a háromszög és az ovális között?,Hogy elzárja a háromszöget az oválistól,Hogy ugyanakkora távolságra legyenek egymástól.,Hogy az ovális tudjon játszani,Mert a háromszög fél az oválistól,1,2,3,4,mentalization,1,28.00306,1
sat_mc_2_with_sound,6134,13,Mit csinál a háromszög?,A nagy téglalapon kívülre megy,Táncol,Vitatkozik,Menekül,4,1,2,3,physical,1,12.031065,0
sat_mc_2_with_sound,6247,3,Mit csinál az ovális és a téglalap?,Összeütköznek,Vitatkoznak,Táncolnak,Játszanak,2,1,3,4,mentalization,2,3.074495,1
sat_mc_2_with_sound,6247,4,Miért megy a háromszög a sarokba?,Mert örül,Aludni,Mert oda jobban oda illik,Mert meg van rémülve,4,3,1,2,mentalization,4,2.96152,1
sat_mc_2_with_sound,6247,5,Miért megy el a téglalap?,Mert dühös,Mert keres valamit,Mert boldog,"Azért, hogy csak ketten maradjanak itt",1,4,3,2,mentalization,1,4.05563,1
sat_mc_2_with_sound,6247,6,Miért megy oda az ovális a háromszöghöz?,Hogy leszidja,Hogy veszekedjenek,Hogy megnyugtassa,Hogy közel legyenek egymáshoz,3,4,2,1,mentalization,3,3.299525,1
sat_mc_2_with_sound,6247,9,Miért van a téglalap a háromszög és az ovális között?,Hogy elzárja a háromszöget az oválistól,Hogy ugyanakkora távolságra legyenek egymástól.,Hogy az ovális tudjon játszani,Mert a háromszög fél az oválistól,1,2,3,4,mentalization,1,7.781205,1
sat_mc_2_with_sound,6247,13,Mit csinál a háromszög?,A nagy téglalapon kívülre megy,Táncol,Vitatkozik,Menekül,4,1,2,3,mentalization,4,3.0994,1
sat_mc_2_with_sound,6243,3,Mit csinál az ovális és a téglalap?,Összeütköznek,Vitatkoznak,Táncolnak,Játszanak,2,1,3,4,mentalization,2,4.53934,1
sat_mc_2_with_sound,6243,4,Miért megy a háromszög a sarokba?,Mert örül,Aludni,Mert oda jobban oda illik,Mert meg van rémülve,4,3,1,2,mentalization,4,6.693295,1
sat_mc_2_with_sound,6243,5,Miért megy el a téglalap?,Mert dühös,Mert keres valamit,Mert boldog,"Azért, hogy csak ketten maradjanak itt",1,4,3,2,mentalization,1,4.283545,1
sat_mc_2_with_sound,6243,6,Miért megy oda az ovális a háromszöghöz?,Hogy leszidja,Hogy veszekedjenek,Hogy megnyugtassa,Hogy közel legyenek egymáshoz,3,4,2,1,mentalization,3,7.404625,1
sat_mc_2_with_sound,6243,9,Miért van a téglalap a háromszög és az ovális között?,Hogy elzárja a háromszöget az oválistól,Hogy ugyanakkora távolságra legyenek egymástól.,Hogy az ovális tudjon játszani,Mert a háromszög fél az oválistól,1,2,3,4,mentalization,1,2.84645,1
sat_mc_2_with_sound,6243,13,Mit csinál a háromszög?,A nagy téglalapon kívülre megy,Táncol,Vitatkozik,Menekül,4,1,2,3,mentalization,4,4.285315,1
sat_mc_2_with_sound,6218,3,Mit csinál az ovális és a téglalap?,Összeütköznek,Vitatkoznak,Táncolnak,Játszanak,2,1,3,4,physical,1,5.39708,0
sat_mc_2_with_sound,6218,4,Miért megy a háromszög a sarokba?,Mert örül,Aludni,Mert oda jobban oda illik,Mert meg van rémülve,4,3,1,2,mentalization,4,11.114495,1
sat_mc_2_with_sound,6218,5,Miért megy el a téglalap?,Mert dühös,Mert keres valamit,Mert boldog,"Azért, hogy csak ketten maradjanak itt",1,4,3,2,mentalization,1,9.836345,1
sat_mc_2_with_sound,6218,6,Miért megy oda az ovális a háromszöghöz?,Hogy leszidja,Hogy veszekedjenek,Hogy megnyugtassa,Hogy közel legyenek egymáshoz,3,4,2,1,mentalization,3,8.074705,1
sat_mc_2_with_sound,6218,9,Miért van a téglalap a háromszög és az ovális között?,Hogy elzárja a háromszöget az oválistól,Hogy ugyanakkora távolságra legyenek egymástól.,Hogy az ovális tudjon játszani,Mert a háromszög fél az oválistól,1,2,3,4,mentalization,1,5.27686,1
sat_mc_2_with_sound,6218,13,Mit csinál a háromszög?,A nagy téglalapon kívülre megy,Táncol,Vitatkozik,Menekül,4,1,2,3,mentalization,4,7.29836,1
sat_mc_2_with_sound,6242,3,Mit csinál az ovális és a téglalap?,Összeütköznek,Vitatkoznak,Táncolnak,Játszanak,2,1,3,4,mentalization,2,9.102305,1
sat_mc_2_with_sound,6242,4,Miért megy a háromszög a sarokba?,Mert örül,Aludni,Mert oda jobban oda illik,Mert meg van rémülve,4,3,1,2,mentalization,4,7.26864,1
sat_mc_2_with_sound,6242,5,Miért megy el a téglalap?,Mert dühös,Mert keres valamit,Mert boldog,"Azért, hogy csak ketten maradjanak itt",1,4,3,2,mentalization,1,9.58964,1
sat_mc_2_with_sound,6242,6,Miért megy oda az ovális a háromszöghöz?,Hogy leszidja,Hogy veszekedjenek,Hogy megnyugtassa,Hogy közel legyenek egymáshoz,3,4,2,1,mentalization,3,8.0632,1
sat_mc_2_with_sound,6242,9,Miért van a téglalap a háromszög és az ovális között?,Hogy elzárja a háromszöget az oválistól,Hogy ugyanakkora távolságra legyenek egymástól.,Hogy az ovális tudjon játszani,Mert a háromszög fél az oválistól,1,2,3,4,mentalization,1,18.448705,1
sat_mc_2_with_sound,6242,13,Mit csinál a háromszög?,A nagy téglalapon kívülre megy,Táncol,Vitatkozik,Menekül,4,1,2,3,mentalization,4,10.893705,1
sat_mc_2_with_sound,6212,3,Mit csinál az ovális és a téglalap?,Összeütköznek,Vitatkoznak,Táncolnak,Játszanak,2,1,3,4,mentalization,2,10.938285,1
sat_mc_2_with_sound,6212,4,Miért megy a háromszög a sarokba?,Mert örül,Aludni,Mert oda jobban oda illik,Mert meg van rémülve,4,3,1,2,mentalization,4,20.3541,1
sat_mc_2_with_sound,6212,5,Miért megy el a téglalap?,Mert dühös,Mert keres valamit,Mert boldog,"Azért, hogy csak ketten maradjanak itt",1,4,3,2,mentalization,1,11.11013,1
sat_mc_2_with_sound,6212,6,Miért megy oda az ovális a háromszöghöz?,Hogy leszidja,Hogy veszekedjenek,Hogy megnyugtassa,Hogy közel legyenek egymáshoz,3,4,2,1,context,1,12.020685,0
sat_mc_2_with_sound,6212,9,Miért van a téglalap a háromszög és az ovális között?,Hogy elzárja a háromszöget az oválistól,Hogy ugyanakkora távolságra legyenek egymástól.,Hogy az ovális tudjon játszani,Mert a háromszög fél az oválistól,1,2,3,4,context,4,16.681335,0
sat_mc_2_with_sound,6212,13,Mit csinál a háromszög?,A nagy téglalapon kívülre megy,Táncol,Vitatkozik,Menekül,4,1,2,3,physical,1,11.65242,0
sat_mc_2_with_sound,6215,3,Mit csinál az ovális és a téglalap?,Összeütköznek,Vitatkoznak,Táncolnak,Játszanak,2,1,3,4,physical,1,6.87179,0
sat_mc_2_with_sound,6215,4,Miért megy a háromszög a sarokba?,Mert örül,Aludni,Mert oda jobban oda illik,Mert meg van rémülve,4,3,1,2,mentalization,4,10.884185,1
sat_mc_2_with_sound,6215,5,Miért megy el a téglalap?,Mert dühös,Mert keres valamit,Mert boldog,"Azért, hogy csak ketten maradjanak itt",1,4,3,2,mentalization,1,10.827915,1
sat_mc_2_with_sound,6215,6,Miért megy oda az ovális a háromszöghöz?,Hogy leszidja,Hogy veszekedjenek,Hogy megnyugtassa,Hogy közel legyenek egymáshoz,3,4,2,1,mentalization,3,12.82104,1
sat_mc_2_with_sound,6215,9,Miért van a téglalap a háromszög és az ovális között?,Hogy elzárja a háromszöget az oválistól,Hogy ugyanakkora távolságra legyenek egymástól.,Hogy az ovális tudjon játszani,Mert a háromszög fél az oválistól,1,2,3,4,mentalization,1,7.94647,1
sat_mc_2_with_sound,6215,13,Mit csinál a háromszög?,A nagy téglalapon kívülre megy,Táncol,Vitatkozik,Menekül,4,1,2,3,mentalization,4,7.004305,1
sat_mc_2_with_sound,6224,3,Mit csinál az ovális és a téglalap?,Összeütköznek,Vitatkoznak,Táncolnak,Játszanak,2,1,3,4,physical,1,13.1182,0
sat_mc_2_with_sound,6224,4,Miért megy a háromszög a sarokba?,Mert örül,Aludni,Mert oda jobban oda illik,Mert meg van rémülve,4,3,1,2,mentalization,4,10.69958,1
sat_mc_2_with_sound,6224,5,Miért megy el a téglalap?,Mert dühös,Mert keres valamit,Mert boldog,"Azért, hogy csak ketten maradjanak itt",1,4,3,2,physical,4,22.486675,0
sat_mc_2_with_sound,6224,6,Miért megy oda az ovális a háromszöghöz?,Hogy leszidja,Hogy veszekedjenek,Hogy megnyugtassa,Hogy közel legyenek egymáshoz,3,4,2,1,mentalization,3,13.09015,1
sat_mc_2_with_sound,6224,9,Miért van a téglalap a háromszög és az ovális között?,Hogy elzárja a háromszöget az oválistól,Hogy ugyanakkora távolságra legyenek egymástól.,Hogy az ovális tudjon játszani,Mert a háromszög fél az oválistól,1,2,3,4,mentalization,1,8.524105,1
sat_mc_2_with_sound,6224,13,Mit csinál a háromszög?,A nagy téglalapon kívülre megy,Táncol,Vitatkozik,Menekül,4,1,2,3,mentalization,4,3.944165,1
sat_mc_2_with_sound,6226,3,Mit csinál az ovális és a téglalap?,Összeütköznek,Vitatkoznak,Táncolnak,Játszanak,2,1,3,4,mentalization,2,4.68033,1
sat_mc_2_with_sound,6226,4,Miért megy a háromszög a sarokba?,Mert örül,Aludni,Mert oda jobban oda illik,Mert meg van rémülve,4,3,1,2,mentalization,4,5.88221,1
sat_mc_2_with_sound,6226,5,Miért megy el a téglalap?,Mert dühös,Mert keres valamit,Mert boldog,"Azért, hogy csak ketten maradjanak itt",1,4,3,2,mentalization,1,9.548855,1
sat_mc_2_with_sound,6226,6,Miért megy oda az ovális a háromszöghöz?,Hogy leszidja,Hogy veszekedjenek,Hogy megnyugtassa,Hogy közel legyenek egymáshoz,3,4,2,1,mentalization,3,10.61588,1
sat_mc_2_with_sound,6226,9,Miért van a téglalap a háromszög és az ovális között?,Hogy elzárja a háromszöget az oválistól,Hogy ugyanakkora távolságra legyenek egymástól.,Hogy az ovális tudjon játszani,Mert a háromszög fél az oválistól,1,2,3,4,mentalization,1,17.40251,1
sat_mc_2_with_sound,6226,13,Mit csinál a háromszög?,A nagy téglalapon kívülre megy,Táncol,Vitatkozik,Menekül,4,1,2,3,physical,1,5.87488,0
sat_mc_2_with_sound,6213,3,Mit csinál az ovális és a téglalap?,Összeütköznek,Vitatkoznak,Táncolnak,Játszanak,2,1,3,4,mentalization,2,8.472975,1
sat_mc_2_with_sound,6213,4,Miért megy a háromszög a sarokba?,Mert örül,Aludni,Mert oda jobban oda illik,Mert meg van rémülve,4,3,1,2,context,2,11.612045,0
sat_mc_2_with_sound,6213,5,Miért megy el a téglalap?,Mert dühös,Mert keres valamit,Mert boldog,"Azért, hogy csak ketten maradjanak itt",1,4,3,2,mentalization,1,9.688815,1
sat_mc_2_with_sound,6213,6,Miért megy oda az ovális a háromszöghöz?,Hogy leszidja,Hogy veszekedjenek,Hogy megnyugtassa,Hogy közel legyenek egymáshoz,3,4,2,1,mentalization,3,10.76625,1
sat_mc_2_with_sound,6213,9,Miért van a téglalap a háromszög és az ovális között?,Hogy elzárja a háromszöget az oválistól,Hogy ugyanakkora távolságra legyenek egymástól.,Hogy az ovális tudjon játszani,Mert a háromszög fél az oválistól,1,2,3,4,physical,2,3.761415,0
sat_mc_2_with_sound,6213,13,Mit csinál a háromszög?,A nagy téglalapon kívülre megy,Táncol,Vitatkozik,Menekül,4,1,2,3,movement,2,1.60293,0
sat_mc_2_with_sound,6223,3,Mit csinál az ovális és a téglalap?,Összeütköznek,Vitatkoznak,Táncolnak,Játszanak,2,1,3,4,mentalization,2,6.18836,1
sat_mc_2_with_sound,6223,4,Miért megy a háromszög a sarokba?,Mert örül,Aludni,Mert oda jobban oda illik,Mert meg van rémülve,4,3,1,2,mentalization,4,10.389975,1
sat_mc_2_with_sound,6223,5,Miért megy el a téglalap?,Mert dühös,Mert keres valamit,Mert boldog,"Azért, hogy csak ketten maradjanak itt",1,4,3,2,mentalization,1,8.743235,1
sat_mc_2_with_sound,6223,6,Miért megy oda az ovális a háromszöghöz?,Hogy leszidja,Hogy veszekedjenek,Hogy megnyugtassa,Hogy közel legyenek egymáshoz,3,4,2,1,mentalization,3,11.62446,1
sat_mc_2_with_sound,6223,9,Miért van a téglalap a háromszög és az ovális között?,Hogy elzárja a háromszöget az oválistól,Hogy ugyanakkora távolságra legyenek egymástól.,Hogy az ovális tudjon játszani,Mert a háromszög fél az oválistól,1,2,3,4,context,4,19.47602,0
sat_mc_2_with_sound,6223,13,Mit csinál a háromszög?,A nagy téglalapon kívülre megy,Táncol,Vitatkozik,Menekül,4,1,2,3,mentalization,4,6.514495,1
sat_mc_2_with_sound,6221,3,Mit csinál az ovális és a téglalap?,Összeütköznek,Vitatkoznak,Táncolnak,Játszanak,2,1,3,4,movement,3,14.208565,0
sat_mc_2_with_sound,6221,4,Miért megy a háromszög a sarokba?,Mert örül,Aludni,Mert oda jobban oda illik,Mert meg van rémülve,4,3,1,2,physical,3,11.12327,0
sat_mc_2_with_sound,6221,5,Miért megy el a téglalap?,Mert dühös,Mert keres valamit,Mert boldog,"Azért, hogy csak ketten maradjanak itt",1,4,3,2,context,2,14.43012,0
sat_mc_2_with_sound,6221,6,Miért megy oda az ovális a háromszöghöz?,Hogy leszidja,Hogy veszekedjenek,Hogy megnyugtassa,Hogy közel legyenek egymáshoz,3,4,2,1,mentalization,3,11.792575,1
sat_mc_2_with_sound,6221,9,Miért van a téglalap a háromszög és az ovális között?,Hogy elzárja a háromszöget az oválistól,Hogy ugyanakkora távolságra legyenek egymástól.,Hogy az ovális tudjon játszani,Mert a háromszög fél az oválistól,1,2,3,4,context,4,19.385705,0
sat_mc_2_with_sound,6221,13,Mit csinál a háromszög?,A nagy téglalapon kívülre megy,Táncol,Vitatkozik,Menekül,4,1,2,3,mentalization,4,10.752685,1
sat_mc_2_with_sound,6210,3,Mit csinál az ovális és a téglalap?,Összeütköznek,Vitatkoznak,Táncolnak,Játszanak,2,1,3,4,movement,3,8.87049,0
sat_mc_2_with_sound,6210,4,Miért megy a háromszög a sarokba?,Mert örül,Aludni,Mert oda jobban oda illik,Mert meg van rémülve,4,3,1,2,physical,3,7.271155,0
sat_mc_2_with_sound,6210,5,Miért megy el a téglalap?,Mert dühös,Mert keres valamit,Mert boldog,"Azért, hogy csak ketten maradjanak itt",1,4,3,2,physical,4,8.04378,0
sat_mc_2_with_sound,6210,6,Miért megy oda az ovális a háromszöghöz?,Hogy leszidja,Hogy veszekedjenek,Hogy megnyugtassa,Hogy közel legyenek egymáshoz,3,4,2,1,physical,4,0.132795,0
sat_mc_2_with_sound,6210,9,Miért van a téglalap a háromszög és az ovális között?,Hogy elzárja a háromszöget az oválistól,Hogy ugyanakkora távolságra legyenek egymástól.,Hogy az ovális tudjon játszani,Mert a háromszög fél az oválistól,1,2,3,4,mentalization,1,7.161505,1
sat_mc_2_with_sound,6210,13,Mit csinál a háromszög?,A nagy téglalapon kívülre megy,Táncol,Vitatkozik,Menekül,4,1,2,3,mentalization,4,3.008935,1
sat_mc_2_with_sound,6211,3,Mit csinál az ovális és a téglalap?,Összeütköznek,Vitatkoznak,Táncolnak,Játszanak,2,1,3,4,mentalization,2,14.426435,1
sat_mc_2_with_sound,6211,4,Miért megy a háromszög a sarokba?,Mert örül,Aludni,Mert oda jobban oda illik,Mert meg van rémülve,4,3,1,2,mentalization,4,11.074335,1
sat_mc_2_with_sound,6211,5,Miért megy el a téglalap?,Mert dühös,Mert keres valamit,Mert boldog,"Azért, hogy csak ketten maradjanak itt",1,4,3,2,mentalization,1,14.284045,1
sat_mc_2_with_sound,6211,6,Miért megy oda az ovális a háromszöghöz?,Hogy leszidja,Hogy veszekedjenek,Hogy megnyugtassa,Hogy közel legyenek egymáshoz,3,4,2,1,physical,4,14.56328,0
sat_mc_2_with_sound,6211,9,Miért van a téglalap a háromszög és az ovális között?,Hogy elzárja a háromszöget az oválistól,Hogy ugyanakkora távolságra legyenek egymástól.,Hogy az ovális tudjon játszani,Mert a háromszög fél az oválistól,1,2,3,4,mentalization,1,33.83303,1
sat_mc_2_with_sound,6211,13,Mit csinál a háromszög?,A nagy téglalapon kívülre megy,Táncol,Vitatkozik,Menekül,4,1,2,3,physical,1,14.975765,0
sat_mc_2_with_sound,6219,3,Mit csinál az ovális és a téglalap?,Összeütköznek,Vitatkoznak,Táncolnak,Játszanak,2,1,3,4,movement,3,10.135715,0
sat_mc_2_with_sound,6219,4,Miért megy a háromszög a sarokba?,Mert örül,Aludni,Mert oda jobban oda illik,Mert meg van rémülve,4,3,1,2,context,2,13.44137,0
sat_mc_2_with_sound,6219,5,Miért megy el a téglalap?,Mert dühös,Mert keres valamit,Mert boldog,"Azért, hogy csak ketten maradjanak itt",1,4,3,2,context,2,14.918085,0
sat_mc_2_with_sound,6219,6,Miért megy oda az ovális a háromszöghöz?,Hogy leszidja,Hogy veszekedjenek,Hogy megnyugtassa,Hogy közel legyenek egymáshoz,3,4,2,1,physical,4,11.94383,0
sat_mc_2_with_sound,6219,9,Miért van a téglalap a háromszög és az ovális között?,Hogy elzárja a háromszöget az oválistól,Hogy ugyanakkora távolságra legyenek egymástól.,Hogy az ovális tudjon játszani,Mert a háromszög fél az oválistól,1,2,3,4,physical,2,33.707605,0
sat_mc_2_with_sound,6219,13,Mit csinál a háromszög?,A nagy téglalapon kívülre megy,Táncol,Vitatkozik,Menekül,4,1,2,3,mentalization,4,9.841085,1
sat_mc_2_with_sound,6228,3,Mit csinál az ovális és a téglalap?,Összeütköznek,Vitatkoznak,Táncolnak,Játszanak,2,1,3,4,context,4,8.23438,0
sat_mc_2_with_sound,6228,4,Miért megy a háromszög a sarokba?,Mert örül,Aludni,Mert oda jobban oda illik,Mert meg van rémülve,4,3,1,2,physical,3,6.14534,0
sat_mc_2_with_sound,6228,5,Miért megy el a téglalap?,Mert dühös,Mert keres valamit,Mert boldog,"Azért, hogy csak ketten maradjanak itt",1,4,3,2,context,2,4.399585,0
sat_mc_2_with_sound,6228,6,Miért megy oda az ovális a háromszöghöz?,Hogy leszidja,Hogy veszekedjenek,Hogy megnyugtassa,Hogy közel legyenek egymáshoz,3,4,2,1,movement,2,4.147155,0
sat_mc_2_with_sound,6228,9,Miért van a téglalap a háromszög és az ovális között?,Hogy elzárja a háromszöget az oválistól,Hogy ugyanakkora távolságra legyenek egymástól.,Hogy az ovális tudjon játszani,Mert a háromszög fél az oválistól,1,2,3,4,context,4,0.501485,0
sat_mc_2_with_sound,6228,13,Mit csinál a háromszög?,A nagy téglalapon kívülre megy,Táncol,Vitatkozik,Menekül,4,1,2,3,context,3,3.56051,0
sat_mc_2_with_sound,6260,3,Mit csinál az ovális és a téglalap?,Összeütköznek,Vitatkoznak,Táncolnak,Játszanak,2,1,3,4,physical,1,5.526865,0
sat_mc_2_with_sound,6260,4,Miért megy a háromszög a sarokba?,Mert örül,Aludni,Mert oda jobban oda illik,Mert meg van rémülve,4,3,1,2,mentalization,4,6.17422,1
sat_mc_2_with_sound,6260,5,Miért megy el a téglalap?,Mert dühös,Mert keres valamit,Mert boldog,"Azért, hogy csak ketten maradjanak itt",1,4,3,2,mentalization,1,10.967575,1
sat_mc_2_with_sound,6260,6,Miért megy oda az ovális a háromszöghöz?,Hogy leszidja,Hogy veszekedjenek,Hogy megnyugtassa,Hogy közel legyenek egymáshoz,3,4,2,1,movement,2,12.528075,0
sat_mc_2_with_sound,6260,9,Miért van a téglalap a háromszög és az ovális között?,Hogy elzárja a háromszöget az oválistól,Hogy ugyanakkora távolságra legyenek egymástól.,Hogy az ovális tudjon játszani,Mert a háromszög fél az oválistól,1,2,3,4,mentalization,1,20.562935,1
sat_mc_2_with_sound,6260,13,Mit csinál a háromszög?,A nagy téglalapon kívülre megy,Táncol,Vitatkozik,Menekül,4,1,2,3,mentalization,4,4.788265,1
sat_mc_2_with_sound,6249,3,Mit csinál az ovális és a téglalap?,Összeütköznek,Vitatkoznak,Táncolnak,Játszanak,2,1,3,4,mentalization,2,5.64541,1
sat_mc_2_with_sound,6249,4,Miért megy a háromszög a sarokba?,Mert örül,Aludni,Mert oda jobban oda illik,Mert meg van rémülve,4,3,1,2,mentalization,4,10.29227,1
sat_mc_2_with_sound,6249,5,Miért megy el a téglalap?,Mert dühös,Mert keres valamit,Mert boldog,"Azért, hogy csak ketten maradjanak itt",1,4,3,2,context,2,13.693565,0
sat_mc_2_with_sound,6249,6,Miért megy oda az ovális a háromszöghöz?,Hogy leszidja,Hogy veszekedjenek,Hogy megnyugtassa,Hogy közel legyenek egymáshoz,3,4,2,1,mentalization,3,15.572235,1
sat_mc_2_with_sound,6249,9,Miért van a téglalap a háromszög és az ovális között?,Hogy elzárja a háromszöget az oválistól,Hogy ugyanakkora távolságra legyenek egymástól.,Hogy az ovális tudjon játszani,Mert a háromszög fél az oválistól,1,2,3,4,mentalization,1,20.714135,1
sat_mc_2_with_sound,6249,13,Mit csinál a háromszög?,A nagy téglalapon kívülre megy,Táncol,Vitatkozik,Menekül,4,1,2,3,mentalization,4,13.308335,1
sat_mc_2_with_sound,6216,3,Mit csinál az ovális és a téglalap?,Összeütköznek,Vitatkoznak,Táncolnak,Játszanak,2,1,3,4,physical,1,6.412875,0
sat_mc_2_with_sound,6216,4,Miért megy a háromszög a sarokba?,Mert örül,Aludni,Mert oda jobban oda illik,Mert meg van rémülve,4,3,1,2,context,2,9.843455,0
sat_mc_2_with_sound,6216,5,Miért megy el a téglalap?,Mert dühös,Mert keres valamit,Mert boldog,"Azért, hogy csak ketten maradjanak itt",1,4,3,2,context,2,7.2586,0
sat_mc_2_with_sound,6216,6,Miért megy oda az ovális a háromszöghöz?,Hogy leszidja,Hogy veszekedjenek,Hogy megnyugtassa,Hogy közel legyenek egymáshoz,3,4,2,1,physical,4,4.84988,0
sat_mc_2_with_sound,6216,9,Miért van a téglalap a háromszög és az ovális között?,Hogy elzárja a háromszöget az oválistól,Hogy ugyanakkora távolságra legyenek egymástól.,Hogy az ovális tudjon játszani,Mert a háromszög fél az oválistól,1,2,3,4,movement,3,13.169295,0
sat_mc_2_with_sound,6216,13,Mit csinál a háromszög?,A nagy téglalapon kívülre megy,Táncol,Vitatkozik,Menekül,4,1,2,3,movement,2,3.487505,0
sat_mc_2_with_sound,6252,3,Mit csinál az ovális és a téglalap?,Összeütköznek,Vitatkoznak,Táncolnak,Játszanak,2,1,3,4,mentalization,2,10.342225,1
sat_mc_2_with_sound,6252,4,Miért megy a háromszög a sarokba?,Mert örül,Aludni,Mert oda jobban oda illik,Mert meg van rémülve,4,3,1,2,mentalization,4,12.01311,1
sat_mc_2_with_sound,6252,5,Miért megy el a téglalap?,Mert dühös,Mert keres valamit,Mert boldog,"Azért, hogy csak ketten maradjanak itt",1,4,3,2,mentalization,1,10.969735,1
sat_mc_2_with_sound,6252,6,Miért megy oda az ovális a háromszöghöz?,Hogy leszidja,Hogy veszekedjenek,Hogy megnyugtassa,Hogy közel legyenek egymáshoz,3,4,2,1,context,1,12.76349,0
sat_mc_2_with_sound,6252,9,Miért van a téglalap a háromszög és az ovális között?,Hogy elzárja a háromszöget az oválistól,Hogy ugyanakkora távolságra legyenek egymástól.,Hogy az ovális tudjon játszani,Mert a háromszög fél az oválistól,1,2,3,4,context,4,16.459975,0
sat_mc_2_with_sound,6252,13,Mit csinál a háromszög?,A nagy téglalapon kívülre megy,Táncol,Vitatkozik,Menekül,4,1,2,3,mentalization,4,10.54421,1
sat_mc_2_with_sound,6232,3,Mit csinál az ovális és a téglalap?,Összeütköznek,Vitatkoznak,Táncolnak,Játszanak,2,1,3,4,physical,1,7.93135,0
sat_mc_2_with_sound,6232,4,Miért megy a háromszög a sarokba?,Mert örül,Aludni,Mert oda jobban oda illik,Mert meg van rémülve,4,3,1,2,mentalization,4,6.960185,1
sat_mc_2_with_sound,6232,5,Miért megy el a téglalap?,Mert dühös,Mert keres valamit,Mert boldog,"Azért, hogy csak ketten maradjanak itt",1,4,3,2,mentalization,1,8.705835,1
sat_mc_2_with_sound,6232,6,Miért megy oda az ovális a háromszöghöz?,Hogy leszidja,Hogy veszekedjenek,Hogy megnyugtassa,Hogy közel legyenek egymáshoz,3,4,2,1,mentalization,3,5.35751,1
sat_mc_2_with_sound,6232,9,Miért van a téglalap a háromszög és az ovális között?,Hogy elzárja a háromszöget az oválistól,Hogy ugyanakkora távolságra legyenek egymástól.,Hogy az ovális tudjon játszani,Mert a háromszög fél az oválistól,1,2,3,4,movement,3,13.37805,0
sat_mc_2_with_sound,6232,13,Mit csinál a háromszög?,A nagy téglalapon kívülre megy,Táncol,Vitatkozik,Menekül,4,1,2,3,physical,1,3.94939,0
sat_mc_2_with_sound,6255,3,Mit csinál az ovális és a téglalap?,Összeütköznek,Vitatkoznak,Táncolnak,Játszanak,2,1,3,4,mentalization,2,7.877085,1
sat_mc_2_with_sound,6255,4,Miért megy a háromszög a sarokba?,Mert örül,Aludni,Mert oda jobban oda illik,Mert meg van rémülve,4,3,1,2,mentalization,4,9.660495,1
sat_mc_2_with_sound,6255,5,Miért megy el a téglalap?,Mert dühös,Mert keres valamit,Mert boldog,"Azért, hogy csak ketten maradjanak itt",1,4,3,2,movement,3,10.329155,0
sat_mc_2_with_sound,6255,6,Miért megy oda az ovális a háromszöghöz?,Hogy leszidja,Hogy veszekedjenek,Hogy megnyugtassa,Hogy közel legyenek egymáshoz,3,4,2,1,mentalization,3,6.03452,1
sat_mc_2_with_sound,6255,9,Miért van a téglalap a háromszög és az ovális között?,Hogy elzárja a háromszöget az oválistól,Hogy ugyanakkora távolságra legyenek egymástól.,Hogy az ovális tudjon játszani,Mert a háromszög fél az oválistól,1,2,3,4,mentalization,1,26.0784,1
sat_mc_2_with_sound,6255,13,Mit csinál a háromszög?,A nagy téglalapon kívülre megy,Táncol,Vitatkozik,Menekül,4,1,2,3,mentalization,4,5.76075,1
sat_mc_2_with_sound,6207,3,Mit csinál az ovális és a téglalap?,Összeütköznek,Vitatkoznak,Táncolnak,Játszanak,2,1,3,4,movement,3,11.57787,0
sat_mc_2_with_sound,6207,4,Miért megy a háromszög a sarokba?,Mert örül,Aludni,Mert oda jobban oda illik,Mert meg van rémülve,4,3,1,2,context,2,12.93796,0
sat_mc_2_with_sound,6207,5,Miért megy el a téglalap?,Mert dühös,Mert keres valamit,Mert boldog,"Azért, hogy csak ketten maradjanak itt",1,4,3,2,physical,4,11.232615,0
sat_mc_2_with_sound,6207,6,Miért megy oda az ovális a háromszöghöz?,Hogy leszidja,Hogy veszekedjenek,Hogy megnyugtassa,Hogy közel legyenek egymáshoz,3,4,2,1,context,1,15.53326,0
sat_mc_2_with_sound,6207,9,Miért van a téglalap a háromszög és az ovális között?,Hogy elzárja a háromszöget az oválistól,Hogy ugyanakkora távolságra legyenek egymástól.,Hogy az ovális tudjon játszani,Mert a háromszög fél az oválistól,1,2,3,4,physical,2,20.710955,0
sat_mc_2_with_sound,6207,13,Mit csinál a háromszög?,A nagy téglalapon kívülre megy,Táncol,Vitatkozik,Menekül,4,1,2,3,physical,1,16.86176,0
sat_mc_2_with_sound,6206,3,Mit csinál az ovális és a téglalap?,Összeütköznek,Vitatkoznak,Táncolnak,Játszanak,2,1,3,4,physical,1,8.938185,0
sat_mc_2_with_sound,6206,4,Miért megy a háromszög a sarokba?,Mert örül,Aludni,Mert oda jobban oda illik,Mert meg van rémülve,4,3,1,2,mentalization,4,8.684045,1
sat_mc_2_with_sound,6206,5,Miért megy el a téglalap?,Mert dühös,Mert keres valamit,Mert boldog,"Azért, hogy csak ketten maradjanak itt",1,4,3,2,physical,4,13.096575,0
sat_mc_2_with_sound,6206,6,Miért megy oda az ovális a háromszöghöz?,Hogy leszidja,Hogy veszekedjenek,Hogy megnyugtassa,Hogy közel legyenek egymáshoz,3,4,2,1,context,1,8.11963,0
sat_mc_2_with_sound,6206,9,Miért van a téglalap a háromszög és az ovális között?,Hogy elzárja a háromszöget az oválistól,Hogy ugyanakkora távolságra legyenek egymástól.,Hogy az ovális tudjon játszani,Mert a háromszög fél az oválistól,1,2,3,4,context,4,15.306365,0
sat_mc_2_with_sound,6206,13,Mit csinál a háromszög?,A nagy téglalapon kívülre megy,Táncol,Vitatkozik,Menekül,4,1,2,3,physical,1,7.242685,0
sat_mc_2_with_sound,6231,3,Mit csinál az ovális és a téglalap?,Összeütköznek,Vitatkoznak,Táncolnak,Játszanak,2,1,3,4,mentalization,2,6.372155,1
sat_mc_2_with_sound,6231,4,Miért megy a háromszög a sarokba?,Mert örül,Aludni,Mert oda jobban oda illik,Mert meg van rémülve,4,3,1,2,mentalization,4,5.158755,1
sat_mc_2_with_sound,6231,5,Miért megy el a téglalap?,Mert dühös,Mert keres valamit,Mert boldog,"Azért, hogy csak ketten maradjanak itt",1,4,3,2,mentalization,1,12.37561,1
sat_mc_2_with_sound,6231,6,Miért megy oda az ovális a háromszöghöz?,Hogy leszidja,Hogy veszekedjenek,Hogy megnyugtassa,Hogy közel legyenek egymáshoz,3,4,2,1,context,1,13.727815,0
sat_mc_2_with_sound,6231,9,Miért van a téglalap a háromszög és az ovális között?,Hogy elzárja a háromszöget az oválistól,Hogy ugyanakkora távolságra legyenek egymástól.,Hogy az ovális tudjon játszani,Mert a háromszög fél az oválistól,1,2,3,4,context,4,19.22005,0
sat_mc_2_with_sound,6231,13,Mit csinál a háromszög?,A nagy téglalapon kívülre megy,Táncol,Vitatkozik,Menekül,4,1,2,3,mentalization,4,3.864655,1
sat_mc_2_with_sound,6203,3,Mit csinál az ovális és a téglalap?,Összeütköznek,Vitatkoznak,Táncolnak,Játszanak,2,1,3,4,physical,1,6.99332,0
sat_mc_2_with_sound,6203,4,Miért megy a háromszög a sarokba?,Mert örül,Aludni,Mert oda jobban oda illik,Mert meg van rémülve,4,3,1,2,mentalization,4,10.197295,1
sat_mc_2_with_sound,6203,5,Miért megy el a téglalap?,Mert dühös,Mert keres valamit,Mert boldog,"Azért, hogy csak ketten maradjanak itt",1,4,3,2,physical,4,26.191555,0
sat_mc_2_with_sound,6203,6,Miért megy oda az ovális a háromszöghöz?,Hogy leszidja,Hogy veszekedjenek,Hogy megnyugtassa,Hogy közel legyenek egymáshoz,3,4,2,1,context,1,17.174705,0
sat_mc_2_with_sound,6203,9,Miért van a téglalap a háromszög és az ovális között?,Hogy elzárja a háromszöget az oválistól,Hogy ugyanakkora távolságra legyenek egymástól.,Hogy az ovális tudjon játszani,Mert a háromszög fél az oválistól,1,2,3,4,context,4,25.994645,0
sat_mc_2_with_sound,6203,13,Mit csinál a háromszög?,A nagy téglalapon kívülre megy,Táncol,Vitatkozik,Menekül,4,1,2,3,movement,2,5.240535,0
sat_mc_2_with_sound,6204,3,Mit csinál az ovális és a téglalap?,Összeütköznek,Vitatkoznak,Táncolnak,Játszanak,2,1,3,4,movement,3,10.60513,0
sat_mc_2_with_sound,6204,4,Miért megy a háromszög a sarokba?,Mert örül,Aludni,Mert oda jobban oda illik,Mert meg van rémülve,4,3,1,2,context,2,10.71411,0
sat_mc_2_with_sound,6204,5,Miért megy el a téglalap?,Mert dühös,Mert keres valamit,Mert boldog,"Azért, hogy csak ketten maradjanak itt",1,4,3,2,context,2,13.50495,0
sat_mc_2_with_sound,6204,6,Miért megy oda az ovális a háromszöghöz?,Hogy leszidja,Hogy veszekedjenek,Hogy megnyugtassa,Hogy közel legyenek egymáshoz,3,4,2,1,physical,4,14.695795,0
sat_mc_2_with_sound,6204,9,Miért van a téglalap a háromszög és az ovális között?,Hogy elzárja a háromszöget az oválistól,Hogy ugyanakkora távolságra legyenek egymástól.,Hogy az ovális tudjon játszani,Mert a háromszög fél az oválistól,1,2,3,4,physical,2,19.77716,0
sat_mc_2_with_sound,6204,13,Mit csinál a háromszög?,A nagy téglalapon kívülre megy,Táncol,Vitatkozik,Menekül,4,1,2,3,movement,2,10.83571,0
sat_mc_2_with_sound,6202,3,Mit csinál az ovális és a téglalap?,Összeütköznek,Vitatkoznak,Táncolnak,Játszanak,2,1,3,4,physical,1,6.40165,0
sat_mc_2_with_sound,6202,4,Miért megy a háromszög a sarokba?,Mert örül,Aludni,Mert oda jobban oda illik,Mert meg van rémülve,4,3,1,2,mentalization,4,10.85167,1
sat_mc_2_with_sound,6202,5,Miért megy el a téglalap?,Mert dühös,Mert keres valamit,Mert boldog,"Azért, hogy csak ketten maradjanak itt",1,4,3,2,mentalization,1,2.79667,1
sat_mc_2_with_sound,6202,6,Miért megy oda az ovális a háromszöghöz?,Hogy leszidja,Hogy veszekedjenek,Hogy megnyugtassa,Hogy közel legyenek egymáshoz,3,4,2,1,mentalization,3,7.38302,1
sat_mc_2_with_sound,6202,9,Miért van a téglalap a háromszög és az ovális között?,Hogy elzárja a háromszöget az oválistól,Hogy ugyanakkora távolságra legyenek egymástól.,Hogy az ovális tudjon játszani,Mert a háromszög fél az oválistól,1,2,3,4,mentalization,1,5.63506,1
sat_mc_2_with_sound,6202,13,Mit csinál a háromszög?,A nagy téglalapon kívülre megy,Táncol,Vitatkozik,Menekül,4,1,2,3,mentalization,4,10.13519,1
sat_mc_2_with_sound,6205,3,Mit csinál az ovális és a téglalap?,Összeütköznek,Vitatkoznak,Táncolnak,Játszanak,2,1,3,4,physical,1,7.014025,0
sat_mc_2_with_sound,6205,4,Miért megy a háromszög a sarokba?,Mert örül,Aludni,Mert oda jobban oda illik,Mert meg van rémülve,4,3,1,2,mentalization,4,5.384785,1
sat_mc_2_with_sound,6205,5,Miért megy el a téglalap?,Mert dühös,Mert keres valamit,Mert boldog,"Azért, hogy csak ketten maradjanak itt",1,4,3,2,mentalization,1,2.84223,1
sat_mc_2_with_sound,6205,6,Miért megy oda az ovális a háromszöghöz?,Hogy leszidja,Hogy veszekedjenek,Hogy megnyugtassa,Hogy közel legyenek egymáshoz,3,4,2,1,movement,2,9.16512,0
sat_mc_2_with_sound,6205,9,Miért van a téglalap a háromszög és az ovális között?,Hogy elzárja a háromszöget az oválistól,Hogy ugyanakkora távolságra legyenek egymástól.,Hogy az ovális tudjon játszani,Mert a háromszög fél az oválistól,1,2,3,4,movement,3,11.821695,0
sat_mc_2_with_sound,6205,13,Mit csinál a háromszög?,A nagy téglalapon kívülre megy,Táncol,Vitatkozik,Menekül,4,1,2,3,movement,2,8.54473,0
sat_mc_2_with_sound,6220,3,Mit csinál az ovális és a téglalap?,Összeütköznek,Vitatkoznak,Táncolnak,Játszanak,2,1,3,4,physical,1,7.385215,0
sat_mc_2_with_sound,6220,4,Miért megy a háromszög a sarokba?,Mert örül,Aludni,Mert oda jobban oda illik,Mert meg van rémülve,4,3,1,2,mentalization,4,6.642105,1
sat_mc_2_with_sound,6220,5,Miért megy el a téglalap?,Mert dühös,Mert keres valamit,Mert boldog,"Azért, hogy csak ketten maradjanak itt",1,4,3,2,context,2,11.515075,0
sat_mc_2_with_sound,6220,6,Miért megy oda az ovális a háromszöghöz?,Hogy leszidja,Hogy veszekedjenek,Hogy megnyugtassa,Hogy közel legyenek egymáshoz,3,4,2,1,mentalization,3,9.75787,1
sat_mc_2_with_sound,6220,9,Miért van a téglalap a háromszög és az ovális között?,Hogy elzárja a háromszöget az oválistól,Hogy ugyanakkora távolságra legyenek egymástól.,Hogy az ovális tudjon játszani,Mert a háromszög fél az oválistól,1,2,3,4,mentalization,1,11.91797,1
sat_mc_2_with_sound,6220,13,Mit csinál a háromszög?,A nagy téglalapon kívülre megy,Táncol,Vitatkozik,Menekül,4,1,2,3,movement,2,6.458945,0
sat_mc_2_with_sound,6208,3,Mit csinál az ovális és a téglalap?,Összeütköznek,Vitatkoznak,Táncolnak,Játszanak,2,1,3,4,physical,1,7.973775,0
sat_mc_2_with_sound,6208,4,Miért megy a háromszög a sarokba?,Mert örül,Aludni,Mert oda jobban oda illik,Mert meg van rémülve,4,3,1,2,mentalization,4,16.48434,1
sat_mc_2_with_sound,6208,5,Miért megy el a téglalap?,Mert dühös,Mert keres valamit,Mert boldog,"Azért, hogy csak ketten maradjanak itt",1,4,3,2,mentalization,1,14.204455,1
sat_mc_2_with_sound,6208,6,Miért megy oda az ovális a háromszöghöz?,Hogy leszidja,Hogy veszekedjenek,Hogy megnyugtassa,Hogy közel legyenek egymáshoz,3,4,2,1,mentalization,3,7.61989,1
sat_mc_2_with_sound,6208,9,Miért van a téglalap a háromszög és az ovális között?,Hogy elzárja a háromszöget az oválistól,Hogy ugyanakkora távolságra legyenek egymástól.,Hogy az ovális tudjon játszani,Mert a háromszög fél az oválistól,1,2,3,4,context,4,19.116795,0
sat_mc_2_with_sound,6208,13,Mit csinál a háromszög?,A nagy téglalapon kívülre megy,Táncol,Vitatkozik,Menekül,4,1,2,3,movement,2,7.222975,0
sat_mc_2_with_sound,6217,3,Mit csinál az ovális és a téglalap?,Összeütköznek,Vitatkoznak,Táncolnak,Játszanak,2,1,3,4,mentalization,2,6.3723,1
sat_mc_2_with_sound,6217,4,Miért megy a háromszög a sarokba?,Mert örül,Aludni,Mert oda jobban oda illik,Mert meg van rémülve,4,3,1,2,mentalization,4,9.932565,1
sat_mc_2_with_sound,6217,5,Miért megy el a téglalap?,Mert dühös,Mert keres valamit,Mert boldog,"Azért, hogy csak ketten maradjanak itt",1,4,3,2,physical,4,12.026325,0
sat_mc_2_with_sound,6217,6,Miért megy oda az ovális a háromszöghöz?,Hogy leszidja,Hogy veszekedjenek,Hogy megnyugtassa,Hogy közel legyenek egymáshoz,3,4,2,1,mentalization,3,13.763725,1
sat_mc_2_with_sound,6217,9,Miért van a téglalap a háromszög és az ovális között?,Hogy elzárja a háromszöget az oválistól,Hogy ugyanakkora távolságra legyenek egymástól.,Hogy az ovális tudjon játszani,Mert a háromszög fél az oválistól,1,2,3,4,mentalization,1,11.62005,1
sat_mc_2_with_sound,6217,13,Mit csinál a háromszög?,A nagy téglalapon kívülre megy,Táncol,Vitatkozik,Menekül,4,1,2,3,context,3,6.21271,0
sat_mc_2_with_sound,6225,3,Mit csinál az ovális és a téglalap?,Összeütköznek,Vitatkoznak,Táncolnak,Játszanak,2,1,3,4,mentalization,2,7.36937,1
sat_mc_2_with_sound,6225,4,Miért megy a háromszög a sarokba?,Mert örül,Aludni,Mert oda jobban oda illik,Mert meg van rémülve,4,3,1,2,physical,3,9.44999,0
sat_mc_2_with_sound,6225,5,Miért megy el a téglalap?,Mert dühös,Mert keres valamit,Mert boldog,"Azért, hogy csak ketten maradjanak itt",1,4,3,2,context,2,9.71909,0
sat_mc_2_with_sound,6225,6,Miért megy oda az ovális a háromszöghöz?,Hogy leszidja,Hogy veszekedjenek,Hogy megnyugtassa,Hogy közel legyenek egymáshoz,3,4,2,1,mentalization,3,5.168535,1
sat_mc_2_with_sound,6225,9,Miért van a téglalap a háromszög és az ovális között?,Hogy elzárja a háromszöget az oválistól,Hogy ugyanakkora távolságra legyenek egymástól.,Hogy az ovális tudjon játszani,Mert a háromszög fél az oválistól,1,2,3,4,context,4,17.0487,0
sat_mc_2_with_sound,6225,13,Mit csinál a háromszög?,A nagy téglalapon kívülre megy,Táncol,Vitatkozik,Menekül,4,1,2,3,mentalization,4,10.928445,1
sat_mc_2_with_sound,6254,3,Mit csinál az ovális és a téglalap?,Összeütköznek,Vitatkoznak,Táncolnak,Játszanak,2,1,3,4,mentalization,2,4.64502,1
sat_mc_2_with_sound,6254,4,Miért megy a háromszög a sarokba?,Mert örül,Aludni,Mert oda jobban oda illik,Mert meg van rémülve,4,3,1,2,mentalization,4,7.37915,1
sat_mc_2_with_sound,6254,5,Miért megy el a téglalap?,Mert dühös,Mert keres valamit,Mert boldog,"Azért, hogy csak ketten maradjanak itt",1,4,3,2,mentalization,1,5.647075,1
sat_mc_2_with_sound,6254,6,Miért megy oda az ovális a háromszöghöz?,Hogy leszidja,Hogy veszekedjenek,Hogy megnyugtassa,Hogy közel legyenek egymáshoz,3,4,2,1,mentalization,3,4.18379,1
sat_mc_2_with_sound,6254,9,Miért van a téglalap a háromszög és az ovális között?,Hogy elzárja a háromszöget az oválistól,Hogy ugyanakkora távolságra legyenek egymástól.,Hogy az ovális tudjon játszani,Mert a háromszög fél az oválistól,1,2,3,4,mentalization,1,12.01757,1
sat_mc_2_with_sound,6254,13,Mit csinál a háromszög?,A nagy téglalapon kívülre megy,Táncol,Vitatkozik,Menekül,4,1,2,3,mentalization,4,4.187725,1
sat_mc_2_with_sound,6246,3,Mit csinál az ovális és a téglalap?,Összeütköznek,Vitatkoznak,Táncolnak,Játszanak,2,1,3,4,movement,3,5.91159,0
sat_mc_2_with_sound,6246,4,Miért megy a háromszög a sarokba?,Mert örül,Aludni,Mert oda jobban oda illik,Mert meg van rémülve,4,3,1,2,mentalization,4,13.98912,1
sat_mc_2_with_sound,6246,5,Miért megy el a téglalap?,Mert dühös,Mert keres valamit,Mert boldog,"Azért, hogy csak ketten maradjanak itt",1,4,3,2,mentalization,1,4.370385,1
sat_mc_2_with_sound,6246,6,Miért megy oda az ovális a háromszöghöz?,Hogy leszidja,Hogy veszekedjenek,Hogy megnyugtassa,Hogy közel legyenek egymáshoz,3,4,2,1,mentalization,3,4.111205,1
sat_mc_2_with_sound,6246,9,Miért van a téglalap a háromszög és az ovális között?,Hogy elzárja a háromszöget az oválistól,Hogy ugyanakkora távolságra legyenek egymástól.,Hogy az ovális tudjon játszani,Mert a háromszög fél az oválistól,1,2,3,4,mentalization,1,6.96184,1
sat_mc_2_with_sound,6246,13,Mit csinál a háromszög?,A nagy téglalapon kívülre megy,Táncol,Vitatkozik,Menekül,4,1,2,3,mentalization,4,4.96017,1
sat_mc_2_with_sound,6209,3,Mit csinál az ovális és a téglalap?,Összeütköznek,Vitatkoznak,Táncolnak,Játszanak,2,1,3,4,mentalization,2,18.309,1
sat_mc_2_with_sound,6209,4,Miért megy a háromszög a sarokba?,Mert örül,Aludni,Mert oda jobban oda illik,Mert meg van rémülve,4,3,1,2,mentalization,4,11.437,1
sat_mc_2_with_sound,6209,5,Miért megy el a téglalap?,Mert dühös,Mert keres valamit,Mert boldog,"Azért, hogy csak ketten maradjanak itt",1,4,3,2,mentalization,1,10.501,1
sat_mc_2_with_sound,6209,6,Miért megy oda az ovális a háromszöghöz?,Hogy leszidja,Hogy veszekedjenek,Hogy megnyugtassa,Hogy közel legyenek egymáshoz,3,4,2,1,mentalization,3,14.065,1
sat_mc_2_with_sound,6209,9,Miért van a téglalap a háromszög és az ovális között?,Hogy elzárja a háromszöget az oválistól,Hogy ugyanakkora távolságra legyenek egymástól.,Hogy az ovális tudjon játszani,Mert a háromszög fél az oválistól,1,2,3,4,mentalization,1,36.076,1
sat_mc_2_with_sound,6209,13,Mit csinál a háromszög?,A nagy téglalapon kívülre megy,Táncol,Vitatkozik,Menekül,4,1,2,3,physical,1,22.579,0
sat_mc_2_with_sound,6257,3,Mit csinál az ovális és a téglalap?,Összeütköznek,Vitatkoznak,Táncolnak,Játszanak,2,1,3,4,context,4,13.6859,0
sat_mc_2_with_sound,6257,4,Miért megy a háromszög a sarokba?,Mert örül,Aludni,Mert oda jobban oda illik,Mert meg van rémülve,4,3,1,2,mentalization,4,5.424095,1
sat_mc_2_with_sound,6257,5,Miért megy el a téglalap?,Mert dühös,Mert keres valamit,Mert boldog,"Azért, hogy csak ketten maradjanak itt",1,4,3,2,mentalization,1,13.60735,1
sat_mc_2_with_sound,6257,6,Miért megy oda az ovális a háromszöghöz?,Hogy leszidja,Hogy veszekedjenek,Hogy megnyugtassa,Hogy közel legyenek egymáshoz,3,4,2,1,mentalization,3,3.05579,1
sat_mc_2_with_sound,6257,9,Miért van a téglalap a háromszög és az ovális között?,Hogy elzárja a háromszöget az oválistól,Hogy ugyanakkora távolságra legyenek egymástól.,Hogy az ovális tudjon játszani,Mert a háromszög fél az oválistól,1,2,3,4,mentalization,1,6.21148,1
sat_mc_2_with_sound,6257,13,Mit csinál a háromszög?,A nagy téglalapon kívülre megy,Táncol,Vitatkozik,Menekül,4,1,2,3,physical,1,6.358135,0
sat_mc_2_with_sound,6104,3,Mit csinál az ovális és a téglalap?,Összeütköznek,Vitatkoznak,Táncolnak,Játszanak,2,1,3,4,physical,1,8.862095,0
sat_mc_2_with_sound,6104,4,Miért megy a háromszög a sarokba?,Mert örül,Aludni,Mert oda jobban oda illik,Mert meg van rémülve,4,3,1,2,mentalization,4,9.180245,1
sat_mc_2_with_sound,6104,5,Miért megy el a téglalap?,Mert dühös,Mert keres valamit,Mert boldog,"Azért, hogy csak ketten maradjanak itt",1,4,3,2,physical,4,19.32918,0
sat_mc_2_with_sound,6104,6,Miért megy oda az ovális a háromszöghöz?,Hogy leszidja,Hogy veszekedjenek,Hogy megnyugtassa,Hogy közel legyenek egymáshoz,3,4,2,1,context,1,14.17184,0
sat_mc_2_with_sound,6104,9,Miért van a téglalap a háromszög és az ovális között?,Hogy elzárja a háromszöget az oválistól,Hogy ugyanakkora távolságra legyenek egymástól.,Hogy az ovális tudjon játszani,Mert a háromszög fél az oválistól,1,2,3,4,mentalization,1,25.96071,1
sat_mc_2_with_sound,6104,13,Mit csinál a háromszög?,A nagy téglalapon kívülre megy,Táncol,Vitatkozik,Menekül,4,1,2,3,mentalization,4,5.445595,1
sat_mc_2_with_sound,6105,3,Mit csinál az ovális és a téglalap?,Összeütköznek,Vitatkoznak,Táncolnak,Játszanak,2,1,3,4,movement,3,13.05292,0
sat_mc_2_with_sound,6105,4,Miért megy a háromszög a sarokba?,Mert örül,Aludni,Mert oda jobban oda illik,Mert meg van rémülve,4,3,1,2,physical,3,18.436035,0
sat_mc_2_with_sound,6105,5,Miért megy el a téglalap?,Mert dühös,Mert keres valamit,Mert boldog,"Azért, hogy csak ketten maradjanak itt",1,4,3,2,context,2,10.755545,0
sat_mc_2_with_sound,6105,6,Miért megy oda az ovális a háromszöghöz?,Hogy leszidja,Hogy veszekedjenek,Hogy megnyugtassa,Hogy közel legyenek egymáshoz,3,4,2,1,physical,4,131.94684,0
sat_mc_2_with_sound,6105,9,Miért van a téglalap a háromszög és az ovális között?,Hogy elzárja a háromszöget az oválistól,Hogy ugyanakkora távolságra legyenek egymástól.,Hogy az ovális tudjon játszani,Mert a háromszög fél az oválistól,1,2,3,4,movement,3,21.146755,0
sat_mc_2_with_sound,6105,13,Mit csinál a háromszög?,A nagy téglalapon kívülre megy,Táncol,Vitatkozik,Menekül,4,1,2,3,context,3,16.41577,0
sat_mc_2_with_sound,6131,3,Mit csinál az ovális és a téglalap?,Összeütköznek,Vitatkoznak,Táncolnak,Játszanak,2,1,3,4,mentalization,2,3.961355,1
sat_mc_2_with_sound,6131,4,Miért megy a háromszög a sarokba?,Mert örül,Aludni,Mert oda jobban oda illik,Mert meg van rémülve,4,3,1,2,mentalization,4,4.45909,1
sat_mc_2_with_sound,6131,5,Miért megy el a téglalap?,Mert dühös,Mert keres valamit,Mert boldog,"Azért, hogy csak ketten maradjanak itt",1,4,3,2,mentalization,1,4.736725,1
sat_mc_2_with_sound,6131,6,Miért megy oda az ovális a háromszöghöz?,Hogy leszidja,Hogy veszekedjenek,Hogy megnyugtassa,Hogy közel legyenek egymáshoz,3,4,2,1,mentalization,3,2.723185,1
sat_mc_2_with_sound,6131,9,Miért van a téglalap a háromszög és az ovális között?,Hogy elzárja a háromszöget az oválistól,Hogy ugyanakkora távolságra legyenek egymástól.,Hogy az ovális tudjon játszani,Mert a háromszög fél az oválistól,1,2,3,4,mentalization,1,15.68819,1
sat_mc_2_with_sound,6131,13,Mit csinál a háromszög?,A nagy téglalapon kívülre megy,Táncol,Vitatkozik,Menekül,4,1,2,3,mentalization,4,3.67896,1
sat_mc_2_with_sound,6136,3,Mit csinál az ovális és a téglalap?,Összeütköznek,Vitatkoznak,Táncolnak,Játszanak,2,1,3,4,mentalization,2,6.406355,1
sat_mc_2_with_sound,6136,4,Miért megy a háromszög a sarokba?,Mert örül,Aludni,Mert oda jobban oda illik,Mert meg van rémülve,4,3,1,2,mentalization,4,12.473965,1
sat_mc_2_with_sound,6136,5,Miért megy el a téglalap?,Mert dühös,Mert keres valamit,Mert boldog,"Azért, hogy csak ketten maradjanak itt",1,4,3,2,context,2,13.95169,0
sat_mc_2_with_sound,6136,6,Miért megy oda az ovális a háromszöghöz?,Hogy leszidja,Hogy veszekedjenek,Hogy megnyugtassa,Hogy közel legyenek egymáshoz,3,4,2,1,mentalization,3,6.0936,1
sat_mc_2_with_sound,6136,9,Miért van a téglalap a háromszög és az ovális között?,Hogy elzárja a háromszöget az oválistól,Hogy ugyanakkora távolságra legyenek egymástól.,Hogy az ovális tudjon játszani,Mert a háromszög fél az oválistól,1,2,3,4,mentalization,1,9.56479,1
sat_mc_2_with_sound,6136,13,Mit csinál a háromszög?,A nagy téglalapon kívülre megy,Táncol,Vitatkozik,Menekül,4,1,2,3,mentalization,4,3.056615,1
sat_mc_2_with_sound,6122,3,Mit csinál az ovális és a téglalap?,Összeütköznek,Vitatkoznak,Táncolnak,Játszanak,2,1,3,4,movement,3,11.901275,0
sat_mc_2_with_sound,6122,4,Miért megy a háromszög a sarokba?,Mert örül,Aludni,Mert oda jobban oda illik,Mert meg van rémülve,4,3,1,2,movement,1,10.69788,0
sat_mc_2_with_sound,6122,5,Miért megy el a téglalap?,Mert dühös,Mert keres valamit,Mert boldog,"Azért, hogy csak ketten maradjanak itt",1,4,3,2,movement,3,8.189435,0
sat_mc_2_with_sound,6122,6,Miért megy oda az ovális a háromszöghöz?,Hogy leszidja,Hogy veszekedjenek,Hogy megnyugtassa,Hogy közel legyenek egymáshoz,3,4,2,1,mentalization,3,5.280675,1
sat_mc_2_with_sound,6122,9,Miért van a téglalap a háromszög és az ovális között?,Hogy elzárja a háromszöget az oválistól,Hogy ugyanakkora távolságra legyenek egymástól.,Hogy az ovális tudjon játszani,Mert a háromszög fél az oválistól,1,2,3,4,physical,2,19.120605,0
sat_mc_2_with_sound,6122,13,Mit csinál a háromszög?,A nagy téglalapon kívülre megy,Táncol,Vitatkozik,Menekül,4,1,2,3,physical,1,5.637995,0
sat_mc_2_with_sound,6101,3,Mit csinál az ovális és a téglalap?,Összeütköznek,Vitatkoznak,Táncolnak,Játszanak,2,1,3,4,movement,3,4.45182,0
sat_mc_2_with_sound,6101,4,Miért megy a háromszög a sarokba?,Mert örül,Aludni,Mert oda jobban oda illik,Mert meg van rémülve,4,3,1,2,movement,1,10.22645,0
sat_mc_2_with_sound,6101,5,Miért megy el a téglalap?,Mert dühös,Mert keres valamit,Mert boldog,"Azért, hogy csak ketten maradjanak itt",1,4,3,2,context,2,9.873395,0
sat_mc_2_with_sound,6101,6,Miért megy oda az ovális a háromszöghöz?,Hogy leszidja,Hogy veszekedjenek,Hogy megnyugtassa,Hogy közel legyenek egymáshoz,3,4,2,1,mentalization,3,4.67263,1
sat_mc_2_with_sound,6101,9,Miért van a téglalap a háromszög és az ovális között?,Hogy elzárja a háromszöget az oválistól,Hogy ugyanakkora távolságra legyenek egymástól.,Hogy az ovális tudjon játszani,Mert a háromszög fél az oválistól,1,2,3,4,mentalization,1,14.277705,1
sat_mc_2_with_sound,6101,13,Mit csinál a háromszög?,A nagy téglalapon kívülre megy,Táncol,Vitatkozik,Menekül,4,1,2,3,physical,1,4.166555,0
sat_mc_2_with_sound,6103,3,Mit csinál az ovális és a téglalap?,Összeütköznek,Vitatkoznak,Táncolnak,Játszanak,2,1,3,4,context,4,10.826515,0
sat_mc_2_with_sound,6103,4,Miért megy a háromszög a sarokba?,Mert örül,Aludni,Mert oda jobban oda illik,Mert meg van rémülve,4,3,1,2,mentalization,4,7.655635,1
sat_mc_2_with_sound,6103,5,Miért megy el a téglalap?,Mert dühös,Mert keres valamit,Mert boldog,"Azért, hogy csak ketten maradjanak itt",1,4,3,2,mentalization,1,7.24821,1
sat_mc_2_with_sound,6103,6,Miért megy oda az ovális a háromszöghöz?,Hogy leszidja,Hogy veszekedjenek,Hogy megnyugtassa,Hogy közel legyenek egymáshoz,3,4,2,1,mentalization,3,6.82368,1
sat_mc_2_with_sound,6103,9,Miért van a téglalap a háromszög és az ovális között?,Hogy elzárja a háromszöget az oválistól,Hogy ugyanakkora távolságra legyenek egymástól.,Hogy az ovális tudjon játszani,Mert a háromszög fél az oválistól,1,2,3,4,context,4,16.50156,0
sat_mc_2_with_sound,6103,13,Mit csinál a háromszög?,A nagy téglalapon kívülre megy,Táncol,Vitatkozik,Menekül,4,1,2,3,physical,1,4.34649,0
sat_mc_2_with_sound,61025,3,Mit csinál az ovális és a téglalap?,Összeütköznek,Vitatkoznak,Táncolnak,Játszanak,2,1,3,4,physical,1,6.077395,0
sat_mc_2_with_sound,61025,4,Miért megy a háromszög a sarokba?,Mert örül,Aludni,Mert oda jobban oda illik,Mert meg van rémülve,4,3,1,2,mentalization,4,60.50323,1
sat_mc_2_with_sound,61025,5,Miért megy el a téglalap?,Mert dühös,Mert keres valamit,Mert boldog,"Azért, hogy csak ketten maradjanak itt",1,4,3,2,physical,4,15.216505,0
sat_mc_2_with_sound,61025,6,Miért megy oda az ovális a háromszöghöz?,Hogy leszidja,Hogy veszekedjenek,Hogy megnyugtassa,Hogy közel legyenek egymáshoz,3,4,2,1,physical,4,8.8058,0
sat_mc_2_with_sound,61025,9,Miért van a téglalap a háromszög és az ovális között?,Hogy elzárja a háromszöget az oválistól,Hogy ugyanakkora távolságra legyenek egymástól.,Hogy az ovális tudjon játszani,Mert a háromszög fél az oválistól,1,2,3,4,physical,2,29.313695,0
sat_mc_2_with_sound,61025,13,Mit csinál a háromszög?,A nagy téglalapon kívülre megy,Táncol,Vitatkozik,Menekül,4,1,2,3,movement,2,16.651205,0
sat_mc_2_with_sound,6127,3,Mit csinál az ovális és a téglalap?,Összeütköznek,Vitatkoznak,Táncolnak,Játszanak,2,1,3,4,mentalization,2,7.72458,1
sat_mc_2_with_sound,6127,4,Miért megy a háromszög a sarokba?,Mert örül,Aludni,Mert oda jobban oda illik,Mert meg van rémülve,4,3,1,2,mentalization,4,9.847035,1
sat_mc_2_with_sound,6127,5,Miért megy el a téglalap?,Mert dühös,Mert keres valamit,Mert boldog,"Azért, hogy csak ketten maradjanak itt",1,4,3,2,mentalization,1,9.876479999,1
sat_mc_2_with_sound,6127,6,Miért megy oda az ovális a háromszöghöz?,Hogy leszidja,Hogy veszekedjenek,Hogy megnyugtassa,Hogy közel legyenek egymáshoz,3,4,2,1,mentalization,3,7.941175,1
sat_mc_2_with_sound,6127,9,Miért van a téglalap a háromszög és az ovális között?,Hogy elzárja a háromszöget az oválistól,Hogy ugyanakkora távolságra legyenek egymástól.,Hogy az ovális tudjon játszani,Mert a háromszög fél az oválistól,1,2,3,4,mentalization,1,49.46453,1
sat_mc_2_with_sound,6127,13,Mit csinál a háromszög?,A nagy téglalapon kívülre megy,Táncol,Vitatkozik,Menekül,4,1,2,3,mentalization,4,3.726745,1
sat_mc_2_with_sound,6124,3,Mit csinál az ovális és a téglalap?,Összeütköznek,Vitatkoznak,Táncolnak,Játszanak,2,1,3,4,mentalization,2,6.7854,1
sat_mc_2_with_sound,6124,4,Miért megy a háromszög a sarokba?,Mert örül,Aludni,Mert oda jobban oda illik,Mert meg van rémülve,4,3,1,2,mentalization,4,26.039255,1
sat_mc_2_with_sound,6124,5,Miért megy el a téglalap?,Mert dühös,Mert keres valamit,Mert boldog,"Azért, hogy csak ketten maradjanak itt",1,4,3,2,mentalization,1,6.700235,1
sat_mc_2_with_sound,6124,6,Miért megy oda az ovális a háromszöghöz?,Hogy leszidja,Hogy veszekedjenek,Hogy megnyugtassa,Hogy közel legyenek egymáshoz,3,4,2,1,context,1,9.33895,0
sat_mc_2_with_sound,6124,9,Miért van a téglalap a háromszög és az ovális között?,Hogy elzárja a háromszöget az oválistól,Hogy ugyanakkora távolságra legyenek egymástól.,Hogy az ovális tudjon játszani,Mert a háromszög fél az oválistól,1,2,3,4,mentalization,1,17.103615,1
sat_mc_2_with_sound,6124,13,Mit csinál a háromszög?,A nagy téglalapon kívülre megy,Táncol,Vitatkozik,Menekül,4,1,2,3,mentalization,4,9.99992,1
sat_mc_2_with_sound,6126,3,Mit csinál az ovális és a téglalap?,Összeütköznek,Vitatkoznak,Táncolnak,Játszanak,2,1,3,4,mentalization,2,7.745305,1
sat_mc_2_with_sound,6126,4,Miért megy a háromszög a sarokba?,Mert örül,Aludni,Mert oda jobban oda illik,Mert meg van rémülve,4,3,1,2,physical,3,21.15451,0
sat_mc_2_with_sound,6126,5,Miért megy el a téglalap?,Mert dühös,Mert keres valamit,Mert boldog,"Azért, hogy csak ketten maradjanak itt",1,4,3,2,movement,3,22.12621,0
sat_mc_2_with_sound,6126,6,Miért megy oda az ovális a háromszöghöz?,Hogy leszidja,Hogy veszekedjenek,Hogy megnyugtassa,Hogy közel legyenek egymáshoz,3,4,2,1,context,1,12.596805,0
sat_mc_2_with_sound,6126,9,Miért van a téglalap a háromszög és az ovális között?,Hogy elzárja a háromszöget az oválistól,Hogy ugyanakkora távolságra legyenek egymástól.,Hogy az ovális tudjon játszani,Mert a háromszög fél az oválistól,1,2,3,4,context,4,28.930145,0
sat_mc_2_with_sound,6126,13,Mit csinál a háromszög?,A nagy téglalapon kívülre megy,Táncol,Vitatkozik,Menekül,4,1,2,3,mentalization,4,6.534750001,1
sat_mc_2_with_sound,KA106,3,Mit csinál az ovális és a téglalap?,Összeütköznek,Vitatkoznak,Táncolnak,Játszanak,2,1,3,4,mentalization,2,4.2321,1
sat_mc_2_with_sound,KA106,4,Miért megy a háromszög a sarokba?,Mert örül,Aludni,Mert oda jobban oda illik,Mert meg van rémülve,4,3,1,2,mentalization,4,5.86187,1
sat_mc_2_with_sound,KA106,5,Miért megy el a téglalap?,Mert dühös,Mert keres valamit,Mert boldog,"Azért, hogy csak ketten maradjanak itt",1,4,3,2,mentalization,1,14.32469,1
sat_mc_2_with_sound,KA106,6,Miért megy oda az ovális a háromszöghöz?,Hogy leszidja,Hogy veszekedjenek,Hogy megnyugtassa,Hogy közel legyenek egymáshoz,3,4,2,1,mentalization,3,2.61344,1
sat_mc_2_with_sound,KA106,9,Miért van a téglalap a háromszög és az ovális között?,Hogy elzárja a háromszöget az oválistól,Hogy ugyanakkora távolságra legyenek egymástól.,Hogy az ovális tudjon játszani,Mert a háromszög fél az oválistól,1,2,3,4,mentalization,1,5.9066,1
sat_mc_2_with_sound,KA106,13,Mit csinál a háromszög?,A nagy téglalapon kívülre megy,Táncol,Vitatkozik,Menekül,4,1,2,3,context,3,7.880675,0
sat_mc_2_with_sound,KA107,3,Mit csinál az ovális és a téglalap?,Összeütköznek,Vitatkoznak,Táncolnak,Játszanak,2,1,3,4,mentalization,2,3.817325,1
sat_mc_2_with_sound,KA107,4,Miért megy a háromszög a sarokba?,Mert örül,Aludni,Mert oda jobban oda illik,Mert meg van rémülve,4,3,1,2,mentalization,4,4.230025,1
sat_mc_2_with_sound,KA107,5,Miért megy el a téglalap?,Mert dühös,Mert keres valamit,Mert boldog,"Azért, hogy csak ketten maradjanak itt",1,4,3,2,mentalization,1,4.925595,1
sat_mc_2_with_sound,KA107,6,Miért megy oda az ovális a háromszöghöz?,Hogy leszidja,Hogy veszekedjenek,Hogy megnyugtassa,Hogy közel legyenek egymáshoz,3,4,2,1,mentalization,3,2.668805,1
sat_mc_2_with_sound,KA107,9,Miért van a téglalap a háromszög és az ovális között?,Hogy elzárja a háromszöget az oválistól,Hogy ugyanakkora távolságra legyenek egymástól.,Hogy az ovális tudjon játszani,Mert a háromszög fél az oválistól,1,2,3,4,mentalization,1,8.347615,1
sat_mc_2_with_sound,KA107,13,Mit csinál a háromszög?,A nagy téglalapon kívülre megy,Táncol,Vitatkozik,Menekül,4,1,2,3,physical,1,6.63232,0
sat_mc_2_with_sound,KA109,3,Mit csinál az ovális és a téglalap?,Összeütköznek,Vitatkoznak,Táncolnak,Játszanak,2,1,3,4,mentalization,2,3.427535,1
sat_mc_2_with_sound,KA109,4,Miért megy a háromszög a sarokba?,Mert örül,Aludni,Mert oda jobban oda illik,Mert meg van rémülve,4,3,1,2,mentalization,4,4.41931,1
sat_mc_2_with_sound,KA109,5,Miért megy el a téglalap?,Mert dühös,Mert keres valamit,Mert boldog,"Azért, hogy csak ketten maradjanak itt",1,4,3,2,mentalization,1,5.39597,1
sat_mc_2_with_sound,KA109,6,Miért megy oda az ovális a háromszöghöz?,Hogy leszidja,Hogy veszekedjenek,Hogy megnyugtassa,Hogy közel legyenek egymáshoz,3,4,2,1,mentalization,3,3.82116,1
sat_mc_2_with_sound,KA109,9,Miért van a téglalap a háromszög és az ovális között?,Hogy elzárja a háromszöget az oválistól,Hogy ugyanakkora távolságra legyenek egymástól.,Hogy az ovális tudjon játszani,Mert a háromszög fél az oválistól,1,2,3,4,mentalization,1,6.53608,1
sat_mc_2_with_sound,KA109,13,Mit csinál a háromszög?,A nagy téglalapon kívülre megy,Táncol,Vitatkozik,Menekül,4,1,2,3,mentalization,4,3.44414,1
sat_mc_2_with_sound,KA101,3,Mit csinál az ovális és a téglalap?,Összeütköznek,Vitatkoznak,Táncolnak,Játszanak,2,1,3,4,mentalization,2,2.76372,1
sat_mc_2_with_sound,KA101,4,Miért megy a háromszög a sarokba?,Mert örül,Aludni,Mert oda jobban oda illik,Mert meg van rémülve,4,3,1,2,mentalization,4,4.549225,1
sat_mc_2_with_sound,KA101,5,Miért megy el a téglalap?,Mert dühös,Mert keres valamit,Mert boldog,"Azért, hogy csak ketten maradjanak itt",1,4,3,2,mentalization,1,4.41367,1
sat_mc_2_with_sound,KA101,6,Miért megy oda az ovális a háromszöghöz?,Hogy leszidja,Hogy veszekedjenek,Hogy megnyugtassa,Hogy közel legyenek egymáshoz,3,4,2,1,mentalization,3,2.219625,1
sat_mc_2_with_sound,KA101,9,Miért van a téglalap a háromszög és az ovális között?,Hogy elzárja a háromszöget az oválistól,Hogy ugyanakkora távolságra legyenek egymástól.,Hogy az ovális tudjon játszani,Mert a háromszög fél az oválistól,1,2,3,4,mentalization,1,8.161305,1
sat_mc_2_with_sound,KA101,13,Mit csinál a háromszög?,A nagy téglalapon kívülre megy,Táncol,Vitatkozik,Menekül,4,1,2,3,mentalization,4,5.88538,1
sat_mc_2_with_sound,KA104,3,Mit csinál az ovális és a téglalap?,Összeütköznek,Vitatkoznak,Táncolnak,Játszanak,2,1,3,4,mentalization,2,8.57768,1
sat_mc_2_with_sound,KA104,4,Miért megy a háromszög a sarokba?,Mert örül,Aludni,Mert oda jobban oda illik,Mert meg van rémülve,4,3,1,2,physical,3,9.88123,0
sat_mc_2_with_sound,KA104,5,Miért megy el a téglalap?,Mert dühös,Mert keres valamit,Mert boldog,"Azért, hogy csak ketten maradjanak itt",1,4,3,2,mentalization,1,11.318195,1
sat_mc_2_with_sound,KA104,6,Miért megy oda az ovális a háromszöghöz?,Hogy leszidja,Hogy veszekedjenek,Hogy megnyugtassa,Hogy közel legyenek egymáshoz,3,4,2,1,movement,2,8.59916,0
sat_mc_2_with_sound,KA104,9,Miért van a téglalap a háromszög és az ovális között?,Hogy elzárja a háromszöget az oválistól,Hogy ugyanakkora távolságra legyenek egymástól.,Hogy az ovális tudjon játszani,Mert a háromszög fél az oválistól,1,2,3,4,mentalization,1,9.42558,1
sat_mc_2_with_sound,KA104,13,Mit csinál a háromszög?,A nagy téglalapon kívülre megy,Táncol,Vitatkozik,Menekül,4,1,2,3,mentalization,4,5.53809,1
sat_mc_2_with_sound,KA110,3,Mit csinál az ovális és a téglalap?,Összeütköznek,Vitatkoznak,Táncolnak,Játszanak,2,1,3,4,mentalization,2,3.661,1
sat_mc_2_with_sound,KA110,4,Miért megy a háromszög a sarokba?,Mert örül,Aludni,Mert oda jobban oda illik,Mert meg van rémülve,4,3,1,2,mentalization,4,4.219,1
sat_mc_2_with_sound,KA110,5,Miért megy el a téglalap?,Mert dühös,Mert keres valamit,Mert boldog,"Azért, hogy csak ketten maradjanak itt",1,4,3,2,mentalization,1,4.926,1
sat_mc_2_with_sound,KA110,6,Miért megy oda az ovális a háromszöghöz?,Hogy leszidja,Hogy veszekedjenek,Hogy megnyugtassa,Hogy közel legyenek egymáshoz,3,4,2,1,mentalization,3,3.586,1
sat_mc_2_with_sound,KA110,9,Miért van a téglalap a háromszög és az ovális között?,Hogy elzárja a háromszöget az oválistól,Hogy ugyanakkora távolságra legyenek egymástól.,Hogy az ovális tudjon játszani,Mert a háromszög fél az oválistól,1,2,3,4,mentalization,1,21.187,1
sat_mc_2_with_sound,KA110,13,Mit csinál a háromszög?,A nagy téglalapon kívülre megy,Táncol,Vitatkozik,Menekül,4,1,2,3,mentalization,4,3.716,1
sat_mc_2_with_sound,LE7VM2,3,Mit csinál az ovális és a téglalap?,Összeütköznek,Vitatkoznak,Táncolnak,Játszanak,2,1,3,4,mentalization,2,4.54089,1
sat_mc_2_with_sound,LE7VM2,4,Miért megy a háromszög a sarokba?,Mert örül,Aludni,Mert oda jobban oda illik,Mert meg van rémülve,4,3,1,2,mentalization,4,10.512815,1
sat_mc_2_with_sound,LE7VM2,5,Miért megy el a téglalap?,Mert dühös,Mert keres valamit,Mert boldog,"Azért, hogy csak ketten maradjanak itt",1,4,3,2,mentalization,1,11.871375,1
sat_mc_2_with_sound,LE7VM2,6,Miért megy oda az ovális a háromszöghöz?,Hogy leszidja,Hogy veszekedjenek,Hogy megnyugtassa,Hogy közel legyenek egymáshoz,3,4,2,1,mentalization,3,11.199975,1
sat_mc_2_with_sound,LE7VM2,9,Miért van a téglalap a háromszög és az ovális között?,Hogy elzárja a háromszöget az oválistól,Hogy ugyanakkora távolságra legyenek egymástól.,Hogy az ovális tudjon játszani,Mert a háromszög fél az oválistól,1,2,3,4,physical,2,14.78306,0
sat_mc_2_with_sound,LE7VM2,13,Mit csinál a háromszög?,A nagy téglalapon kívülre megy,Táncol,Vitatkozik,Menekül,4,1,2,3,mentalization,4,24.50012,1
sat_mc_2_with_sound,6107,3,Mit csinál az ovális és a téglalap?,Összeütköznek,Vitatkoznak,Táncolnak,Játszanak,2,1,3,4,physical,1,5.551025,0
sat_mc_2_with_sound,6107,4,Miért megy a háromszög a sarokba?,Mert örül,Aludni,Mert oda jobban oda illik,Mert meg van rémülve,4,3,1,2,mentalization,4,9.601725,1
sat_mc_2_with_sound,6107,5,Miért megy el a téglalap?,Mert dühös,Mert keres valamit,Mert boldog,"Azért, hogy csak ketten maradjanak itt",1,4,3,2,mentalization,1,7.400945,1
sat_mc_2_with_sound,6107,6,Miért megy oda az ovális a háromszöghöz?,Hogy leszidja,Hogy veszekedjenek,Hogy megnyugtassa,Hogy közel legyenek egymáshoz,3,4,2,1,mentalization,3,8.187645,1
sat_mc_2_with_sound,6107,9,Miért van a téglalap a háromszög és az ovális között?,Hogy elzárja a háromszöget az oválistól,Hogy ugyanakkora távolságra legyenek egymástól.,Hogy az ovális tudjon játszani,Mert a háromszög fél az oválistól,1,2,3,4,movement,3,1.19418,0
sat_mc_2_with_sound,6107,13,Mit csinál a háromszög?,A nagy téglalapon kívülre megy,Táncol,Vitatkozik,Menekül,4,1,2,3,physical,1,4.033655,0
sat_mc_2_with_sound,KA114,3,Mit csinál az ovális és a téglalap?,Összeütköznek,Vitatkoznak,Táncolnak,Játszanak,2,1,3,4,mentalization,2,4.713885,1
sat_mc_2_with_sound,KA114,4,Miért megy a háromszög a sarokba?,Mert örül,Aludni,Mert oda jobban oda illik,Mert meg van rémülve,4,3,1,2,mentalization,4,9.95706,1
sat_mc_2_with_sound,KA114,5,Miért megy el a téglalap?,Mert dühös,Mert keres valamit,Mert boldog,"Azért, hogy csak ketten maradjanak itt",1,4,3,2,mentalization,1,13.15635,1
sat_mc_2_with_sound,KA114,6,Miért megy oda az ovális a háromszöghöz?,Hogy leszidja,Hogy veszekedjenek,Hogy megnyugtassa,Hogy közel legyenek egymáshoz,3,4,2,1,mentalization,3,5.0349,1
sat_mc_2_with_sound,KA114,9,Miért van a téglalap a háromszög és az ovális között?,Hogy elzárja a háromszöget az oválistól,Hogy ugyanakkora távolságra legyenek egymástól.,Hogy az ovális tudjon játszani,Mert a háromszög fél az oválistól,1,2,3,4,mentalization,1,15.358095,1
sat_mc_2_with_sound,KA114,13,Mit csinál a háromszög?,A nagy téglalapon kívülre megy,Táncol,Vitatkozik,Menekül,4,1,2,3,mentalization,4,8.85426,1
sat_mc_2_with_sound,KA115,3,Mit csinál az ovális és a téglalap?,Összeütköznek,Vitatkoznak,Táncolnak,Játszanak,2,1,3,4,mentalization,2,4.831005,1
sat_mc_2_with_sound,KA115,4,Miért megy a háromszög a sarokba?,Mert örül,Aludni,Mert oda jobban oda illik,Mert meg van rémülve,4,3,1,2,mentalization,4,6.014675,1
sat_mc_2_with_sound,KA115,5,Miért megy el a téglalap?,Mert dühös,Mert keres valamit,Mert boldog,"Azért, hogy csak ketten maradjanak itt",1,4,3,2,mentalization,1,16.78368,1
sat_mc_2_with_sound,KA115,6,Miért megy oda az ovális a háromszöghöz?,Hogy leszidja,Hogy veszekedjenek,Hogy megnyugtassa,Hogy közel legyenek egymáshoz,3,4,2,1,mentalization,3,3.317355,1
sat_mc_2_with_sound,KA115,9,Miért van a téglalap a háromszög és az ovális között?,Hogy elzárja a háromszöget az oválistól,Hogy ugyanakkora távolságra legyenek egymástól.,Hogy az ovális tudjon játszani,Mert a háromszög fél az oválistól,1,2,3,4,mentalization,1,11.335145,1
sat_mc_2_with_sound,KA115,13,Mit csinál a háromszög?,A nagy téglalapon kívülre megy,Táncol,Vitatkozik,Menekül,4,1,2,3,physical,1,7.822585,0
sat_mc_2_with_sound,KA102,3,Mit csinál az ovális és a téglalap?,Összeütköznek,Vitatkoznak,Táncolnak,Játszanak,2,1,3,4,mentalization,2,4.428255,1
sat_mc_2_with_sound,KA102,4,Miért megy a háromszög a sarokba?,Mert örül,Aludni,Mert oda jobban oda illik,Mert meg van rémülve,4,3,1,2,mentalization,4,3.69337,1
sat_mc_2_with_sound,KA102,5,Miért megy el a téglalap?,Mert dühös,Mert keres valamit,Mert boldog,"Azért, hogy csak ketten maradjanak itt",1,4,3,2,mentalization,1,4.25538,1
sat_mc_2_with_sound,KA102,6,Miért megy oda az ovális a háromszöghöz?,Hogy leszidja,Hogy veszekedjenek,Hogy megnyugtassa,Hogy közel legyenek egymáshoz,3,4,2,1,mentalization,3,5.29164,1
sat_mc_2_with_sound,KA102,9,Miért van a téglalap a háromszög és az ovális között?,Hogy elzárja a háromszöget az oválistól,Hogy ugyanakkora távolságra legyenek egymástól.,Hogy az ovális tudjon játszani,Mert a háromszög fél az oválistól,1,2,3,4,mentalization,1,22.355645,1
sat_mc_2_with_sound,KA102,13,Mit csinál a háromszög?,A nagy téglalapon kívülre megy,Táncol,Vitatkozik,Menekül,4,1,2,3,mentalization,4,11.88984,1
sat_mc_2_with_sound,KA108,3,Mit csinál az ovális és a téglalap?,Összeütköznek,Vitatkoznak,Táncolnak,Játszanak,2,1,3,4,mentalization,2,4.202085,1
sat_mc_2_with_sound,KA108,4,Miért megy a háromszög a sarokba?,Mert örül,Aludni,Mert oda jobban oda illik,Mert meg van rémülve,4,3,1,2,mentalization,4,3.5365,1
sat_mc_2_with_sound,KA108,5,Miért megy el a téglalap?,Mert dühös,Mert keres valamit,Mert boldog,"Azért, hogy csak ketten maradjanak itt",1,4,3,2,mentalization,1,3.603055,1
sat_mc_2_with_sound,KA108,6,Miért megy oda az ovális a háromszöghöz?,Hogy leszidja,Hogy veszekedjenek,Hogy megnyugtassa,Hogy közel legyenek egymáshoz,3,4,2,1,mentalization,3,3.579705,1
sat_mc_2_with_sound,KA108,9,Miért van a téglalap a háromszög és az ovális között?,Hogy elzárja a háromszöget az oválistól,Hogy ugyanakkora távolságra legyenek egymástól.,Hogy az ovális tudjon játszani,Mert a háromszög fél az oválistól,1,2,3,4,mentalization,1,7.93964,1
sat_mc_2_with_sound,KA108,13,Mit csinál a háromszög?,A nagy téglalapon kívülre megy,Táncol,Vitatkozik,Menekül,4,1,2,3,mentalization,4,4.99183,1
sat_mc_2_with_sound,KA105,3,Mit csinál az ovális és a téglalap?,Összeütköznek,Vitatkoznak,Táncolnak,Játszanak,2,1,3,4,mentalization,2,6.668975,1
sat_mc_2_with_sound,KA105,4,Miért megy a háromszög a sarokba?,Mert örül,Aludni,Mert oda jobban oda illik,Mert meg van rémülve,4,3,1,2,mentalization,4,9.82164,1
sat_mc_2_with_sound,KA105,5,Miért megy el a téglalap?,Mert dühös,Mert keres valamit,Mert boldog,"Azért, hogy csak ketten maradjanak itt",1,4,3,2,mentalization,1,6.29453,1
sat_mc_2_with_sound,KA105,6,Miért megy oda az ovális a háromszöghöz?,Hogy leszidja,Hogy veszekedjenek,Hogy megnyugtassa,Hogy közel legyenek egymáshoz,3,4,2,1,mentalization,3,7.535725,1
sat_mc_2_with_sound,KA105,9,Miért van a téglalap a háromszög és az ovális között?,Hogy elzárja a háromszöget az oválistól,Hogy ugyanakkora távolságra legyenek egymástól.,Hogy az ovális tudjon játszani,Mert a háromszög fél az oválistól,1,2,3,4,mentalization,1,11.760265,1
sat_mc_2_with_sound,KA105,13,Mit csinál a háromszög?,A nagy téglalapon kívülre megy,Táncol,Vitatkozik,Menekül,4,1,2,3,mentalization,4,6.78857,1
sat_mc_2_with_sound,KA119,3,Mit csinál az ovális és a téglalap?,Összeütköznek,Vitatkoznak,Táncolnak,Játszanak,2,1,3,4,mentalization,2,9.604115,1
sat_mc_2_with_sound,KA119,4,Miért megy a háromszög a sarokba?,Mert örül,Aludni,Mert oda jobban oda illik,Mert meg van rémülve,4,3,1,2,mentalization,4,9.59272,1
sat_mc_2_with_sound,KA119,5,Miért megy el a téglalap?,Mert dühös,Mert keres valamit,Mert boldog,"Azért, hogy csak ketten maradjanak itt",1,4,3,2,mentalization,1,11.898675,1
sat_mc_2_with_sound,KA119,6,Miért megy oda az ovális a háromszöghöz?,Hogy leszidja,Hogy veszekedjenek,Hogy megnyugtassa,Hogy közel legyenek egymáshoz,3,4,2,1,mentalization,3,11.40912,1
sat_mc_2_with_sound,KA119,9,Miért van a téglalap a háromszög és az ovális között?,Hogy elzárja a háromszöget az oválistól,Hogy ugyanakkora távolságra legyenek egymástól.,Hogy az ovális tudjon játszani,Mert a háromszög fél az oválistól,1,2,3,4,mentalization,1,11.18515,1
sat_mc_2_with_sound,KA119,13,Mit csinál a háromszög?,A nagy téglalapon kívülre megy,Táncol,Vitatkozik,Menekül,4,1,2,3,mentalization,4,9.305545,1
sat_mc_2_with_sound,WXDN4D,3,Mit csinál az ovális és a téglalap?,Összeütköznek,Vitatkoznak,Táncolnak,Játszanak,2,1,3,4,mentalization,2,14.09647,1
sat_mc_2_with_sound,WXDN4D,4,Miért megy a háromszög a sarokba?,Mert örül,Aludni,Mert oda jobban oda illik,Mert meg van rémülve,4,3,1,2,mentalization,4,3.343315,1
sat_mc_2_with_sound,WXDN4D,5,Miért megy el a téglalap?,Mert dühös,Mert keres valamit,Mert boldog,"Azért, hogy csak ketten maradjanak itt",1,4,3,2,physical,4,7.338895,0
sat_mc_2_with_sound,WXDN4D,6,Miért megy oda az ovális a háromszöghöz?,Hogy leszidja,Hogy veszekedjenek,Hogy megnyugtassa,Hogy közel legyenek egymáshoz,3,4,2,1,mentalization,3,3.551385,1
sat_mc_2_with_sound,WXDN4D,9,Miért van a téglalap a háromszög és az ovális között?,Hogy elzárja a háromszöget az oválistól,Hogy ugyanakkora távolságra legyenek egymástól.,Hogy az ovális tudjon játszani,Mert a háromszög fél az oválistól,1,2,3,4,physical,2,22.039805,0
sat_mc_2_with_sound,WXDN4D,13,Mit csinál a háromszög?,A nagy téglalapon kívülre megy,Táncol,Vitatkozik,Menekül,4,1,2,3,physical,1,6.5463,0
sat_mc_2_with_sound,KA120,3,Mit csinál az ovális és a téglalap?,Összeütköznek,Vitatkoznak,Táncolnak,Játszanak,2,1,3,4,mentalization,2,2.221,1
sat_mc_2_with_sound,KA120,4,Miért megy a háromszög a sarokba?,Mert örül,Aludni,Mert oda jobban oda illik,Mert meg van rémülve,4,3,1,2,mentalization,4,3.161,1
sat_mc_2_with_sound,KA120,5,Miért megy el a téglalap?,Mert dühös,Mert keres valamit,Mert boldog,"Azért, hogy csak ketten maradjanak itt",1,4,3,2,mentalization,1,3.289,1
sat_mc_2_with_sound,KA120,6,Miért megy oda az ovális a háromszöghöz?,Hogy leszidja,Hogy veszekedjenek,Hogy megnyugtassa,Hogy közel legyenek egymáshoz,3,4,2,1,mentalization,3,3.544,1
sat_mc_2_with_sound,KA120,9,Miért van a téglalap a háromszög és az ovális között?,Hogy elzárja a háromszöget az oválistól,Hogy ugyanakkora távolságra legyenek egymástól.,Hogy az ovális tudjon játszani,Mert a háromszög fél az oválistól,1,2,3,4,mentalization,1,5.731,1
sat_mc_2_with_sound,KA120,13,Mit csinál a háromszög?,A nagy téglalapon kívülre megy,Táncol,Vitatkozik,Menekül,4,1,2,3,mentalization,4,3.281,1
sat_mc_2_with_sound,KA121,3,Mit csinál az ovális és a téglalap?,Összeütköznek,Vitatkoznak,Táncolnak,Játszanak,2,1,3,4,mentalization,2,7.450035,1
sat_mc_2_with_sound,KA121,4,Miért megy a háromszög a sarokba?,Mert örül,Aludni,Mert oda jobban oda illik,Mert meg van rémülve,4,3,1,2,mentalization,4,2.24712,1
sat_mc_2_with_sound,KA121,5,Miért megy el a téglalap?,Mert dühös,Mert keres valamit,Mert boldog,"Azért, hogy csak ketten maradjanak itt",1,4,3,2,mentalization,1,7.295605,1
sat_mc_2_with_sound,KA121,6,Miért megy oda az ovális a háromszöghöz?,Hogy leszidja,Hogy veszekedjenek,Hogy megnyugtassa,Hogy közel legyenek egymáshoz,3,4,2,1,mentalization,3,1.838575,1
sat_mc_2_with_sound,KA121,9,Miért van a téglalap a háromszög és az ovális között?,Hogy elzárja a háromszöget az oválistól,Hogy ugyanakkora távolságra legyenek egymástól.,Hogy az ovális tudjon játszani,Mert a háromszög fél az oválistól,1,2,3,4,mentalization,1,6.384085,1
sat_mc_2_with_sound,KA121,13,Mit csinál a háromszög?,A nagy téglalapon kívülre megy,Táncol,Vitatkozik,Menekül,4,1,2,3,mentalization,4,2.64892,1
sat_mc_2_with_sound,KA124,3,Mit csinál az ovális és a téglalap?,Összeütköznek,Vitatkoznak,Táncolnak,Játszanak,2,1,3,4,mentalization,2,5.355685,1
sat_mc_2_with_sound,KA124,4,Miért megy a háromszög a sarokba?,Mert örül,Aludni,Mert oda jobban oda illik,Mert meg van rémülve,4,3,1,2,mentalization,4,3.78348,1
sat_mc_2_with_sound,KA124,5,Miért megy el a téglalap?,Mert dühös,Mert keres valamit,Mert boldog,"Azért, hogy csak ketten maradjanak itt",1,4,3,2,mentalization,1,4.09852,1
sat_mc_2_with_sound,KA124,6,Miért megy oda az ovális a háromszöghöz?,Hogy leszidja,Hogy veszekedjenek,Hogy megnyugtassa,Hogy közel legyenek egymáshoz,3,4,2,1,mentalization,3,3.508775,1
sat_mc_2_with_sound,KA124,9,Miért van a téglalap a háromszög és az ovális között?,Hogy elzárja a háromszöget az oválistól,Hogy ugyanakkora távolságra legyenek egymástól.,Hogy az ovális tudjon játszani,Mert a háromszög fél az oválistól,1,2,3,4,mentalization,1,12.347145,1
sat_mc_2_with_sound,KA124,13,Mit csinál a háromszög?,A nagy téglalapon kívülre megy,Táncol,Vitatkozik,Menekül,4,1,2,3,mentalization,4,3.49111,1
sat_mc_2_with_sound,KA125,3,Mit csinál az ovális és a téglalap?,Összeütköznek,Vitatkoznak,Táncolnak,Játszanak,2,1,3,4,mentalization,2,4.79367,1
sat_mc_2_with_sound,KA125,4,Miért megy a háromszög a sarokba?,Mert örül,Aludni,Mert oda jobban oda illik,Mert meg van rémülve,4,3,1,2,mentalization,4,7.32582,1
sat_mc_2_with_sound,KA125,5,Miért megy el a téglalap?,Mert dühös,Mert keres valamit,Mert boldog,"Azért, hogy csak ketten maradjanak itt",1,4,3,2,mentalization,1,3.653875,1
sat_mc_2_with_sound,KA125,6,Miért megy oda az ovális a háromszöghöz?,Hogy leszidja,Hogy veszekedjenek,Hogy megnyugtassa,Hogy közel legyenek egymáshoz,3,4,2,1,mentalization,3,2.83182,1
sat_mc_2_with_sound,KA125,9,Miért van a téglalap a háromszög és az ovális között?,Hogy elzárja a háromszöget az oválistól,Hogy ugyanakkora távolságra legyenek egymástól.,Hogy az ovális tudjon játszani,Mert a háromszög fél az oválistól,1,2,3,4,mentalization,1,8.837675,1
sat_mc_2_with_sound,KA125,13,Mit csinál a háromszög?,A nagy téglalapon kívülre megy,Táncol,Vitatkozik,Menekül,4,1,2,3,mentalization,4,6.62482,1
sat_mc_2_with_sound,KA113,3,Mit csinál az ovális és a téglalap?,Összeütköznek,Vitatkoznak,Táncolnak,Játszanak,2,1,3,4,mentalization,2,3.03,1
sat_mc_2_with_sound,KA113,4,Miért megy a háromszög a sarokba?,Mert örül,Aludni,Mert oda jobban oda illik,Mert meg van rémülve,4,3,1,2,mentalization,4,3.393,1
sat_mc_2_with_sound,KA113,5,Miért megy el a téglalap?,Mert dühös,Mert keres valamit,Mert boldog,"Azért, hogy csak ketten maradjanak itt",1,4,3,2,mentalization,1,8.347,1
sat_mc_2_with_sound,KA113,6,Miért megy oda az ovális a háromszöghöz?,Hogy leszidja,Hogy veszekedjenek,Hogy megnyugtassa,Hogy közel legyenek egymáshoz,3,4,2,1,mentalization,3,2.986,1
sat_mc_2_with_sound,KA113,9,Miért van a téglalap a háromszög és az ovális között?,Hogy elzárja a háromszöget az oválistól,Hogy ugyanakkora távolságra legyenek egymástól.,Hogy az ovális tudjon játszani,Mert a háromszög fél az oválistól,1,2,3,4,mentalization,1,9.216,1
sat_mc_2_with_sound,KA113,13,Mit csinál a háromszög?,A nagy téglalapon kívülre megy,Táncol,Vitatkozik,Menekül,4,1,2,3,mentalization,4,2.577,1
sat_mc_2_with_sound,6125,3,Mit csinál az ovális és a téglalap?,Összeütköznek,Vitatkoznak,Táncolnak,Játszanak,2,1,3,4,mentalization,2,9.434305,1
sat_mc_2_with_sound,6125,4,Miért megy a háromszög a sarokba?,Mert örül,Aludni,Mert oda jobban oda illik,Mert meg van rémülve,4,3,1,2,mentalization,4,10.021695,1
sat_mc_2_with_sound,6125,5,Miért megy el a téglalap?,Mert dühös,Mert keres valamit,Mert boldog,"Azért, hogy csak ketten maradjanak itt",1,4,3,2,mentalization,1,11.748655,1
sat_mc_2_with_sound,6125,6,Miért megy oda az ovális a háromszöghöz?,Hogy leszidja,Hogy veszekedjenek,Hogy megnyugtassa,Hogy közel legyenek egymáshoz,3,4,2,1,mentalization,3,13.51428,1
sat_mc_2_with_sound,6125,9,Miért van a téglalap a háromszög és az ovális között?,Hogy elzárja a háromszöget az oválistól,Hogy ugyanakkora távolságra legyenek egymástól.,Hogy az ovális tudjon játszani,Mert a háromszög fél az oválistól,1,2,3,4,mentalization,1,17.70221,1
sat_mc_2_with_sound,6125,13,Mit csinál a háromszög?,A nagy téglalapon kívülre megy,Táncol,Vitatkozik,Menekül,4,1,2,3,mentalization,4,6.2907,1
sat_mc_2_with_sound,TAKISK,3,Mit csinál az ovális és a téglalap?,Összeütköznek,Vitatkoznak,Táncolnak,Játszanak,2,1,3,4,mentalization,2,10.336055,1
sat_mc_2_with_sound,TAKISK,4,Miért megy a háromszög a sarokba?,Mert örül,Aludni,Mert oda jobban oda illik,Mert meg van rémülve,4,3,1,2,mentalization,4,4.144895,1
sat_mc_2_with_sound,TAKISK,5,Miért megy el a téglalap?,Mert dühös,Mert keres valamit,Mert boldog,"Azért, hogy csak ketten maradjanak itt",1,4,3,2,mentalization,1,4.299985,1
sat_mc_2_with_sound,TAKISK,6,Miért megy oda az ovális a háromszöghöz?,Hogy leszidja,Hogy veszekedjenek,Hogy megnyugtassa,Hogy közel legyenek egymáshoz,3,4,2,1,mentalization,3,4.275355,1
sat_mc_2_with_sound,TAKISK,9,Miért van a téglalap a háromszög és az ovális között?,Hogy elzárja a háromszöget az oválistól,Hogy ugyanakkora távolságra legyenek egymástól.,Hogy az ovális tudjon játszani,Mert a háromszög fél az oválistól,1,2,3,4,mentalization,1,22.387575,1
sat_mc_2_with_sound,TAKISK,13,Mit csinál a háromszög?,A nagy téglalapon kívülre megy,Táncol,Vitatkozik,Menekül,4,1,2,3,mentalization,4,3.188475,1
sat_mc_2_with_sound,KA123,3,Mit csinál az ovális és a téglalap?,Összeütköznek,Vitatkoznak,Táncolnak,Játszanak,2,1,3,4,movement,3,8.076625,0
sat_mc_2_with_sound,KA123,4,Miért megy a háromszög a sarokba?,Mert örül,Aludni,Mert oda jobban oda illik,Mert meg van rémülve,4,3,1,2,mentalization,4,4.937235,1
sat_mc_2_with_sound,KA123,5,Miért megy el a téglalap?,Mert dühös,Mert keres valamit,Mert boldog,"Azért, hogy csak ketten maradjanak itt",1,4,3,2,mentalization,1,11.336595,1
sat_mc_2_with_sound,KA123,6,Miért megy oda az ovális a háromszöghöz?,Hogy leszidja,Hogy veszekedjenek,Hogy megnyugtassa,Hogy közel legyenek egymáshoz,3,4,2,1,mentalization,3,3.321195,1
sat_mc_2_with_sound,KA123,9,Miért van a téglalap a háromszög és az ovális között?,Hogy elzárja a háromszöget az oválistól,Hogy ugyanakkora távolságra legyenek egymástól.,Hogy az ovális tudjon játszani,Mert a háromszög fél az oválistól,1,2,3,4,mentalization,1,13.41577,1
sat_mc_2_with_sound,KA123,13,Mit csinál a háromszög?,A nagy téglalapon kívülre megy,Táncol,Vitatkozik,Menekül,4,1,2,3,mentalization,4,3.396305,1
sat_mc_2_with_sound,KA127,3,Mit csinál az ovális és a téglalap?,Összeütköznek,Vitatkoznak,Táncolnak,Játszanak,2,1,3,4,mentalization,2,2.614445,1
sat_mc_2_with_sound,KA127,4,Miért megy a háromszög a sarokba?,Mert örül,Aludni,Mert oda jobban oda illik,Mert meg van rémülve,4,3,1,2,mentalization,4,4.185855,1
sat_mc_2_with_sound,KA127,5,Miért megy el a téglalap?,Mert dühös,Mert keres valamit,Mert boldog,"Azért, hogy csak ketten maradjanak itt",1,4,3,2,mentalization,1,9.31591,1
sat_mc_2_with_sound,KA127,6,Miért megy oda az ovális a háromszöghöz?,Hogy leszidja,Hogy veszekedjenek,Hogy megnyugtassa,Hogy közel legyenek egymáshoz,3,4,2,1,mentalization,3,3.36583,1
sat_mc_2_with_sound,KA127,9,Miért van a téglalap a háromszög és az ovális között?,Hogy elzárja a háromszöget az oválistól,Hogy ugyanakkora távolságra legyenek egymástól.,Hogy az ovális tudjon játszani,Mert a háromszög fél az oválistól,1,2,3,4,mentalization,1,5.16983,1
