experiment,ID,trial,question,choice_1,choice_2,choice_3,choice_4,mentalization,physical,movement,context,response_type,response,RT,ACC
sat_mc_2,6138,3,Mit csinál az ovális és a téglalap?,Összeütköznek,Vitatkoznak,Táncolnak,Játszanak,2,1,3,4,mentalization,2,5.95649,1
sat_mc_2,6138,4,Miért megy a háromszög a sarokba?,Mert örül,Aludni,Mert oda jobban oda illik.,Mert meg van rémülve,4,3,1,2,mentalization,4,17.38566,1
sat_mc_2,6138,5,Miért megy el a téglalap?,Mert dühös,Mert keres valamit,Mert boldog,"Azért, hogy csak ketten maradjanak itt",1,4,3,2,physical,4,7.722585,0
sat_mc_2,6138,6,Miért megy oda az ovális a háromszöghöz?,Hogy leszidja,Hogy veszekedjenek,Hogy megnyugtassa,Hogy közel legyenek egymáshoz,3,4,2,1,mentalization,3,7.404105,1
sat_mc_2,6138,9,Miért van a téglalap a háromszög és az ovális között?,Hogy elzárja a háromszöget az oválistól,Hogy ugyanakkora távolságra legyenek egymástól.,Hogy az ovális tudjon játszani,Mert a háromszög fél az oválistól,1,2,3,4,mentalization,1,24.25561,1
sat_mc_2,6138,13,Mit csinál a háromszög?,A nagy téglalapon kívülre megy.,Táncol,Vitatkozik,Menekül,4,1,2,3,physical,1,9.909755,0
sat_mc_2,BL211,3,Mit csinál az ovális és a téglalap?,Összeütköznek,Vitatkoznak,Táncolnak,Játszanak,2,1,3,4,physical,1,5.294,0
sat_mc_2,BL211,4,Miért megy a háromszög a sarokba?,Mert örül,Aludni,Mert oda jobban oda illik.,Mert meg van rémülve,4,3,1,2,movement,1,6.513,0
sat_mc_2,BL211,5,Miért megy el a téglalap?,Mert dühös,Mert keres valamit,Mert boldog,"Azért, hogy csak ketten maradjanak itt",1,4,3,2,movement,3,13.924,0
sat_mc_2,BL211,6,Miért megy oda az ovális a háromszöghöz?,Hogy leszidja,Hogy veszekedjenek,Hogy megnyugtassa,Hogy közel legyenek egymáshoz,3,4,2,1,mentalization,3,3.184,1
sat_mc_2,BL211,9,Miért van a téglalap a háromszög és az ovális között?,Hogy elzárja a háromszöget az oválistól,Hogy ugyanakkora távolságra legyenek egymástól.,Hogy az ovális tudjon játszani,Mert a háromszög fél az oválistól,1,2,3,4,mentalization,1,11.649,1
sat_mc_2,BL211,13,Mit csinál a háromszög?,A nagy téglalapon kívülre megy.,Táncol,Vitatkozik,Menekül,4,1,2,3,physical,1,7.402,0
sat_mc_2,FF017,3,Mit csinál az ovális és a téglalap?,Összeütköznek,Vitatkoznak,Táncolnak,Játszanak,2,1,3,4,mentalization,2,2.76,1
sat_mc_2,FF017,4,Miért megy a háromszög a sarokba?,Mert örül,Aludni,Mert oda jobban oda illik.,Mert meg van rémülve,4,3,1,2,mentalization,4,2.62,1
sat_mc_2,FF017,5,Miért megy el a téglalap?,Mert dühös,Mert keres valamit,Mert boldog,"Azért, hogy csak ketten maradjanak itt",1,4,3,2,mentalization,1,3.924,1
sat_mc_2,FF017,6,Miért megy oda az ovális a háromszöghöz?,Hogy leszidja,Hogy veszekedjenek,Hogy megnyugtassa,Hogy közel legyenek egymáshoz,3,4,2,1,mentalization,3,2.928,1
sat_mc_2,FF017,9,Miért van a téglalap a háromszög és az ovális között?,Hogy elzárja a háromszöget az oválistól,Hogy ugyanakkora távolságra legyenek egymástól.,Hogy az ovális tudjon játszani,Mert a háromszög fél az oválistól,1,2,3,4,mentalization,1,21.561,1
sat_mc_2,FF017,13,Mit csinál a háromszög?,A nagy téglalapon kívülre megy.,Táncol,Vitatkozik,Menekül,4,1,2,3,movement,2,9.452,0
sat_mc_2,KOR124,3,Mit csinál az ovális és a téglalap?,Összeütköznek,Vitatkoznak,Táncolnak,Játszanak,2,1,3,4,mentalization,2,14.5029,1
sat_mc_2,KOR124,4,Miért megy a háromszög a sarokba?,Mert örül,Aludni,Mert oda jobban oda illik.,Mert meg van rémülve,4,3,1,2,mentalization,4,6.7689,1
sat_mc_2,KOR124,5,Miért megy el a téglalap?,Mert dühös,Mert keres valamit,Mert boldog,"Azért, hogy csak ketten maradjanak itt",1,4,3,2,mentalization,1,5.1305,1
sat_mc_2,KOR124,6,Miért megy oda az ovális a háromszöghöz?,Hogy leszidja,Hogy veszekedjenek,Hogy megnyugtassa,Hogy közel legyenek egymáshoz,3,4,2,1,mentalization,3,3.1032,1
sat_mc_2,KOR124,9,Miért van a téglalap a háromszög és az ovális között?,Hogy elzárja a háromszöget az oválistól,Hogy ugyanakkora távolságra legyenek egymástól.,Hogy az ovális tudjon játszani,Mert a háromszög fél az oválistól,1,2,3,4,mentalization,1,11.6679,1
sat_mc_2,KOR124,13,Mit csinál a háromszög?,A nagy téglalapon kívülre megy.,Táncol,Vitatkozik,Menekül,4,1,2,3,mentalization,4,8.7373,1
sat_mc_2,5074,3,Mit csinál az ovális és a téglalap?,Összeütköznek,Vitatkoznak,Táncolnak,Játszanak,2,1,3,4,mentalization,2,4.545305,1
sat_mc_2,5074,4,Miért megy a háromszög a sarokba?,Mert örül,Aludni,Mert oda jobban oda illik.,Mert meg van rémülve,4,3,1,2,mentalization,4,5.95482,1
sat_mc_2,5074,5,Miért megy el a téglalap?,Mert dühös,Mert keres valamit,Mert boldog,"Azért, hogy csak ketten maradjanak itt",1,4,3,2,mentalization,1,4.6035,1
sat_mc_2,5074,6,Miért megy oda az ovális a háromszöghöz?,Hogy leszidja,Hogy veszekedjenek,Hogy megnyugtassa,Hogy közel legyenek egymáshoz,3,4,2,1,mentalization,3,3.11698,1
sat_mc_2,5074,9,Miért van a téglalap a háromszög és az ovális között?,Hogy elzárja a háromszöget az oválistól,Hogy ugyanakkora távolságra legyenek egymástól.,Hogy az ovális tudjon játszani,Mert a háromszög fél az oválistól,1,2,3,4,context,4,12.086435,0
sat_mc_2,5074,13,Mit csinál a háromszög?,A nagy téglalapon kívülre megy.,Táncol,Vitatkozik,Menekül,4,1,2,3,mentalization,4,5.162005,1
sat_mc_2,5098,3,Mit csinál az ovális és a téglalap?,Összeütköznek,Vitatkoznak,Táncolnak,Játszanak,2,1,3,4,mentalization,2,12.232,1
sat_mc_2,5098,4,Miért megy a háromszög a sarokba?,Mert örül,Aludni,Mert oda jobban oda illik.,Mert meg van rémülve,4,3,1,2,mentalization,4,6.572,1
sat_mc_2,5098,5,Miért megy el a téglalap?,Mert dühös,Mert keres valamit,Mert boldog,"Azért, hogy csak ketten maradjanak itt",1,4,3,2,mentalization,1,30.026,1
sat_mc_2,5098,6,Miért megy oda az ovális a háromszöghöz?,Hogy leszidja,Hogy veszekedjenek,Hogy megnyugtassa,Hogy közel legyenek egymáshoz,3,4,2,1,mentalization,3,59.95,1
sat_mc_2,5098,9,Miért van a téglalap a háromszög és az ovális között?,Hogy elzárja a háromszöget az oválistól,Hogy ugyanakkora távolságra legyenek egymástól.,Hogy az ovális tudjon játszani,Mert a háromszög fél az oválistól,1,2,3,4,mentalization,1,51.54,1
sat_mc_2,5098,13,Mit csinál a háromszög?,A nagy téglalapon kívülre megy.,Táncol,Vitatkozik,Menekül,4,1,2,3,mentalization,4,13.162,1
sat_mc_2,KOR140,3,Mit csinál az ovális és a téglalap?,Összeütköznek,Vitatkoznak,Táncolnak,Játszanak,2,1,3,4,mentalization,2,3.078,1
sat_mc_2,KOR140,4,Miért megy a háromszög a sarokba?,Mert örül,Aludni,Mert oda jobban oda illik.,Mert meg van rémülve,4,3,1,2,mentalization,4,4.305,1
sat_mc_2,KOR140,5,Miért megy el a téglalap?,Mert dühös,Mert keres valamit,Mert boldog,"Azért, hogy csak ketten maradjanak itt",1,4,3,2,mentalization,1,4.966,1
sat_mc_2,KOR140,6,Miért megy oda az ovális a háromszöghöz?,Hogy leszidja,Hogy veszekedjenek,Hogy megnyugtassa,Hogy közel legyenek egymáshoz,3,4,2,1,mentalization,3,3.134,1
sat_mc_2,KOR140,9,Miért van a téglalap a háromszög és az ovális között?,Hogy elzárja a háromszöget az oválistól,Hogy ugyanakkora távolságra legyenek egymástól.,Hogy az ovális tudjon játszani,Mert a háromszög fél az oválistól,1,2,3,4,mentalization,1,16.706,1
sat_mc_2,KOR140,13,Mit csinál a háromszög?,A nagy téglalapon kívülre megy.,Táncol,Vitatkozik,Menekül,4,1,2,3,mentalization,4,5.254,1
sat_mc_2,FF004,3,Mit csinál az ovális és a téglalap?,Összeütköznek,Vitatkoznak,Táncolnak,Játszanak,2,1,3,4,physical,1,7.933,0
sat_mc_2,FF004,4,Miért megy a háromszög a sarokba?,Mert örül,Aludni,Mert oda jobban oda illik.,Mert meg van rémülve,4,3,1,2,mentalization,4,7.392,1
sat_mc_2,FF004,5,Miért megy el a téglalap?,Mert dühös,Mert keres valamit,Mert boldog,"Azért, hogy csak ketten maradjanak itt",1,4,3,2,mentalization,1,6.199,1
sat_mc_2,FF004,6,Miért megy oda az ovális a háromszöghöz?,Hogy leszidja,Hogy veszekedjenek,Hogy megnyugtassa,Hogy közel legyenek egymáshoz,3,4,2,1,mentalization,3,3.535,1
sat_mc_2,FF004,9,Miért van a téglalap a háromszög és az ovális között?,Hogy elzárja a háromszöget az oválistól,Hogy ugyanakkora távolságra legyenek egymástól.,Hogy az ovális tudjon játszani,Mert a háromszög fél az oválistól,1,2,3,4,mentalization,1,12.119,1
sat_mc_2,FF004,13,Mit csinál a háromszög?,A nagy téglalapon kívülre megy.,Táncol,Vitatkozik,Menekül,4,1,2,3,mentalization,4,3.762,1
sat_mc_2,FF006,3,Mit csinál az ovális és a téglalap?,Összeütköznek,Vitatkoznak,Táncolnak,Játszanak,2,1,3,4,mentalization,2,20.4576,1
sat_mc_2,FF006,4,Miért megy a háromszög a sarokba?,Mert örül,Aludni,Mert oda jobban oda illik.,Mert meg van rémülve,4,3,1,2,mentalization,4,12.5839,1
sat_mc_2,FF006,5,Miért megy el a téglalap?,Mert dühös,Mert keres valamit,Mert boldog,"Azért, hogy csak ketten maradjanak itt",1,4,3,2,mentalization,1,10.9989,1
sat_mc_2,FF006,6,Miért megy oda az ovális a háromszöghöz?,Hogy leszidja,Hogy veszekedjenek,Hogy megnyugtassa,Hogy közel legyenek egymáshoz,3,4,2,1,mentalization,3,3.5534,1
sat_mc_2,FF006,9,Miért van a téglalap a háromszög és az ovális között?,Hogy elzárja a háromszöget az oválistól,Hogy ugyanakkora távolságra legyenek egymástól.,Hogy az ovális tudjon játszani,Mert a háromszög fél az oválistól,1,2,3,4,mentalization,1,29.5675,1
sat_mc_2,FF006,13,Mit csinál a háromszög?,A nagy téglalapon kívülre megy.,Táncol,Vitatkozik,Menekül,4,1,2,3,mentalization,4,33.2965,1
sat_mc_2,FF015,3,Mit csinál az ovális és a téglalap?,Összeütköznek,Vitatkoznak,Táncolnak,Játszanak,2,1,3,4,mentalization,2,5.3447,1
sat_mc_2,FF015,4,Miért megy a háromszög a sarokba?,Mert örül,Aludni,Mert oda jobban oda illik.,Mert meg van rémülve,4,3,1,2,mentalization,4,3.8671,1
sat_mc_2,FF015,5,Miért megy el a téglalap?,Mert dühös,Mert keres valamit,Mert boldog,"Azért, hogy csak ketten maradjanak itt",1,4,3,2,mentalization,1,4.5122,1
sat_mc_2,FF015,6,Miért megy oda az ovális a háromszöghöz?,Hogy leszidja,Hogy veszekedjenek,Hogy megnyugtassa,Hogy közel legyenek egymáshoz,3,4,2,1,mentalization,3,4.4577,1
sat_mc_2,FF015,9,Miért van a téglalap a háromszög és az ovális között?,Hogy elzárja a háromszöget az oválistól,Hogy ugyanakkora távolságra legyenek egymástól.,Hogy az ovális tudjon játszani,Mert a háromszög fél az oválistól,1,2,3,4,mentalization,1,8.3385,1
sat_mc_2,FF015,13,Mit csinál a háromszög?,A nagy téglalapon kívülre megy.,Táncol,Vitatkozik,Menekül,4,1,2,3,mentalization,4,4.5277,1
sat_mc_2,FF031,3,Mit csinál az ovális és a téglalap?,Összeütköznek,Vitatkoznak,Táncolnak,Játszanak,2,1,3,4,movement,3,13.23,0
sat_mc_2,FF031,4,Miért megy a háromszög a sarokba?,Mert örül,Aludni,Mert oda jobban oda illik.,Mert meg van rémülve,4,3,1,2,mentalization,4,4.154,1
sat_mc_2,FF031,5,Miért megy el a téglalap?,Mert dühös,Mert keres valamit,Mert boldog,"Azért, hogy csak ketten maradjanak itt",1,4,3,2,mentalization,1,3.802,1
sat_mc_2,FF031,6,Miért megy oda az ovális a háromszöghöz?,Hogy leszidja,Hogy veszekedjenek,Hogy megnyugtassa,Hogy közel legyenek egymáshoz,3,4,2,1,movement,2,3.36,0
sat_mc_2,FF031,9,Miért van a téglalap a háromszög és az ovális között?,Hogy elzárja a háromszöget az oválistól,Hogy ugyanakkora távolságra legyenek egymástól.,Hogy az ovális tudjon játszani,Mert a háromszög fél az oválistól,1,2,3,4,mentalization,1,26.597,1
sat_mc_2,FF031,13,Mit csinál a háromszög?,A nagy téglalapon kívülre megy.,Táncol,Vitatkozik,Menekül,4,1,2,3,context,3,12.655,0
sat_mc_2,BÉLA,3,Mit csinál az ovális és a téglalap?,Összeütköznek,Vitatkoznak,Táncolnak,Játszanak,2,1,3,4,movement,3,2.8077,0
sat_mc_2,BÉLA,4,Miért megy a háromszög a sarokba?,Mert örül,Aludni,Mert oda jobban oda illik.,Mert meg van rémülve,4,3,1,2,context,2,1.4289,0
sat_mc_2,BÉLA,5,Miért megy el a téglalap?,Mert dühös,Mert keres valamit,Mert boldog,"Azért, hogy csak ketten maradjanak itt",1,4,3,2,physical,4,3.9355,0
sat_mc_2,BÉLA,6,Miért megy oda az ovális a háromszöghöz?,Hogy leszidja,Hogy veszekedjenek,Hogy megnyugtassa,Hogy közel legyenek egymáshoz,3,4,2,1,mentalization,3,7.7662,1
sat_mc_2,BÉLA,9,Miért van a téglalap a háromszög és az ovális között?,Hogy elzárja a háromszöget az oválistól,Hogy ugyanakkora távolságra legyenek egymástól.,Hogy az ovális tudjon játszani,Mert a háromszög fél az oválistól,1,2,3,4,movement,3,17.8202,0
sat_mc_2,BÉLA,13,Mit csinál a háromszög?,A nagy téglalapon kívülre megy.,Táncol,Vitatkozik,Menekül,4,1,2,3,movement,2,1.1005,0
sat_mc_2,KOR175,3,Mit csinál az ovális és a téglalap?,Összeütköznek,Vitatkoznak,Táncolnak,Játszanak,2,1,3,4,physical,1,34.7109,0
sat_mc_2,KOR175,4,Miért megy a háromszög a sarokba?,Mert örül,Aludni,Mert oda jobban oda illik.,Mert meg van rémülve,4,3,1,2,mentalization,4,16.0807,1
sat_mc_2,KOR175,5,Miért megy el a téglalap?,Mert dühös,Mert keres valamit,Mert boldog,"Azért, hogy csak ketten maradjanak itt",1,4,3,2,physical,4,27.2744,0
sat_mc_2,KOR175,6,Miért megy oda az ovális a háromszöghöz?,Hogy leszidja,Hogy veszekedjenek,Hogy megnyugtassa,Hogy közel legyenek egymáshoz,3,4,2,1,mentalization,3,12.5737,1
sat_mc_2,KOR175,9,Miért van a téglalap a háromszög és az ovális között?,Hogy elzárja a háromszöget az oválistól,Hogy ugyanakkora távolságra legyenek egymástól.,Hogy az ovális tudjon játszani,Mert a háromszög fél az oválistól,1,2,3,4,mentalization,1,17.835,1
sat_mc_2,KOR175,13,Mit csinál a háromszög?,A nagy téglalapon kívülre megy.,Táncol,Vitatkozik,Menekül,4,1,2,3,physical,1,13.4648,0
sat_mc_2,KOR177,3,Mit csinál az ovális és a téglalap?,Összeütköznek,Vitatkoznak,Táncolnak,Játszanak,2,1,3,4,context,4,12.7814,0
sat_mc_2,KOR177,4,Miért megy a háromszög a sarokba?,Mert örül,Aludni,Mert oda jobban oda illik.,Mert meg van rémülve,4,3,1,2,mentalization,4,33.7843,1
sat_mc_2,KOR177,5,Miért megy el a téglalap?,Mert dühös,Mert keres valamit,Mert boldog,"Azért, hogy csak ketten maradjanak itt",1,4,3,2,physical,4,7.0818,0
sat_mc_2,KOR177,6,Miért megy oda az ovális a háromszöghöz?,Hogy leszidja,Hogy veszekedjenek,Hogy megnyugtassa,Hogy közel legyenek egymáshoz,3,4,2,1,physical,4,6.331,0
sat_mc_2,KOR177,9,Miért van a téglalap a háromszög és az ovális között?,Hogy elzárja a háromszöget az oválistól,Hogy ugyanakkora távolságra legyenek egymástól.,Hogy az ovális tudjon játszani,Mert a háromszög fél az oválistól,1,2,3,4,mentalization,1,30.8991,1
sat_mc_2,KOR177,13,Mit csinál a háromszög?,A nagy téglalapon kívülre megy.,Táncol,Vitatkozik,Menekül,4,1,2,3,physical,1,7.4631,0
sat_mc_2,FF207,3,Mit csinál az ovális és a téglalap?,Összeütköznek,Vitatkoznak,Táncolnak,Játszanak,2,1,3,4,mentalization,2,3.3013,1
sat_mc_2,FF207,4,Miért megy a háromszög a sarokba?,Mert örül,Aludni,Mert oda jobban oda illik.,Mert meg van rémülve,4,3,1,2,mentalization,4,3.3458,1
sat_mc_2,FF207,5,Miért megy el a téglalap?,Mert dühös,Mert keres valamit,Mert boldog,"Azért, hogy csak ketten maradjanak itt",1,4,3,2,mentalization,1,3.7459,1
sat_mc_2,FF207,6,Miért megy oda az ovális a háromszöghöz?,Hogy leszidja,Hogy veszekedjenek,Hogy megnyugtassa,Hogy közel legyenek egymáshoz,3,4,2,1,mentalization,3,3.3042,1
sat_mc_2,FF207,9,Miért van a téglalap a háromszög és az ovális között?,Hogy elzárja a háromszöget az oválistól,Hogy ugyanakkora távolságra legyenek egymástól.,Hogy az ovális tudjon játszani,Mert a háromszög fél az oválistól,1,2,3,4,mentalization,1,6.2933,1
sat_mc_2,FF207,13,Mit csinál a háromszög?,A nagy téglalapon kívülre megy.,Táncol,Vitatkozik,Menekül,4,1,2,3,mentalization,4,5.4731,1
sat_mc_2,BL185,3,Mit csinál az ovális és a téglalap?,Összeütköznek,Vitatkoznak,Táncolnak,Játszanak,2,1,3,4,mentalization,2,6.7137,1
sat_mc_2,BL185,4,Miért megy a háromszög a sarokba?,Mert örül,Aludni,Mert oda jobban oda illik.,Mert meg van rémülve,4,3,1,2,mentalization,4,2.4704,1
sat_mc_2,BL185,5,Miért megy el a téglalap?,Mert dühös,Mert keres valamit,Mert boldog,"Azért, hogy csak ketten maradjanak itt",1,4,3,2,mentalization,1,3.8921,1
sat_mc_2,BL185,6,Miért megy oda az ovális a háromszöghöz?,Hogy leszidja,Hogy veszekedjenek,Hogy megnyugtassa,Hogy közel legyenek egymáshoz,3,4,2,1,mentalization,3,2.5731,1
sat_mc_2,BL185,9,Miért van a téglalap a háromszög és az ovális között?,Hogy elzárja a háromszöget az oválistól,Hogy ugyanakkora távolságra legyenek egymástól.,Hogy az ovális tudjon játszani,Mert a háromszög fél az oválistól,1,2,3,4,mentalization,1,5.7499,1
sat_mc_2,BL185,13,Mit csinál a háromszög?,A nagy téglalapon kívülre megy.,Táncol,Vitatkozik,Menekül,4,1,2,3,mentalization,4,12.4235,1
sat_mc_2,KOR148,3,Mit csinál az ovális és a téglalap?,Összeütköznek,Vitatkoznak,Táncolnak,Játszanak,2,1,3,4,mentalization,2,6.8312,1
sat_mc_2,KOR148,4,Miért megy a háromszög a sarokba?,Mert örül,Aludni,Mert oda jobban oda illik.,Mert meg van rémülve,4,3,1,2,mentalization,4,9.0678,1
sat_mc_2,KOR148,5,Miért megy el a téglalap?,Mert dühös,Mert keres valamit,Mert boldog,"Azért, hogy csak ketten maradjanak itt",1,4,3,2,mentalization,1,11.9681,1
sat_mc_2,KOR148,6,Miért megy oda az ovális a háromszöghöz?,Hogy leszidja,Hogy veszekedjenek,Hogy megnyugtassa,Hogy közel legyenek egymáshoz,3,4,2,1,mentalization,3,4.3641,1
sat_mc_2,KOR148,9,Miért van a téglalap a háromszög és az ovális között?,Hogy elzárja a háromszöget az oválistól,Hogy ugyanakkora távolságra legyenek egymástól.,Hogy az ovális tudjon játszani,Mert a háromszög fél az oválistól,1,2,3,4,mentalization,1,36.6783,1
sat_mc_2,KOR148,13,Mit csinál a háromszög?,A nagy téglalapon kívülre megy.,Táncol,Vitatkozik,Menekül,4,1,2,3,physical,1,16.3898,0
sat_mc_2,FF001,3,Mit csinál az ovális és a téglalap?,Összeütköznek,Vitatkoznak,Táncolnak,Játszanak,2,1,3,4,mentalization,2,3.2769,1
sat_mc_2,FF001,4,Miért megy a háromszög a sarokba?,Mert örül,Aludni,Mert oda jobban oda illik.,Mert meg van rémülve,4,3,1,2,mentalization,4,3.6121,1
sat_mc_2,FF001,5,Miért megy el a téglalap?,Mert dühös,Mert keres valamit,Mert boldog,"Azért, hogy csak ketten maradjanak itt",1,4,3,2,mentalization,1,5.1811,1
sat_mc_2,FF001,6,Miért megy oda az ovális a háromszöghöz?,Hogy leszidja,Hogy veszekedjenek,Hogy megnyugtassa,Hogy közel legyenek egymáshoz,3,4,2,1,mentalization,3,3.0567,1
sat_mc_2,FF001,9,Miért van a téglalap a háromszög és az ovális között?,Hogy elzárja a háromszöget az oválistól,Hogy ugyanakkora távolságra legyenek egymástól.,Hogy az ovális tudjon játszani,Mert a háromszög fél az oválistól,1,2,3,4,mentalization,1,7.8452,1
sat_mc_2,FF001,13,Mit csinál a háromszög?,A nagy téglalapon kívülre megy.,Táncol,Vitatkozik,Menekül,4,1,2,3,mentalization,4,3.4075,1
sat_mc_2,FF019,3,Mit csinál az ovális és a téglalap?,Összeütköznek,Vitatkoznak,Táncolnak,Játszanak,2,1,3,4,mentalization,2,2.71,1
sat_mc_2,FF019,4,Miért megy a háromszög a sarokba?,Mert örül,Aludni,Mert oda jobban oda illik.,Mert meg van rémülve,4,3,1,2,mentalization,4,3.224,1
sat_mc_2,FF019,5,Miért megy el a téglalap?,Mert dühös,Mert keres valamit,Mert boldog,"Azért, hogy csak ketten maradjanak itt",1,4,3,2,mentalization,1,5.8,1
sat_mc_2,FF019,6,Miért megy oda az ovális a háromszöghöz?,Hogy leszidja,Hogy veszekedjenek,Hogy megnyugtassa,Hogy közel legyenek egymáshoz,3,4,2,1,mentalization,3,5.504,1
sat_mc_2,FF019,9,Miért van a téglalap a háromszög és az ovális között?,Hogy elzárja a háromszöget az oválistól,Hogy ugyanakkora távolságra legyenek egymástól.,Hogy az ovális tudjon játszani,Mert a háromszög fél az oválistól,1,2,3,4,mentalization,1,8.274,1
sat_mc_2,FF019,13,Mit csinál a háromszög?,A nagy téglalapon kívülre megy.,Táncol,Vitatkozik,Menekül,4,1,2,3,context,3,10.613,0
sat_mc_2,FF028,3,Mit csinál az ovális és a téglalap?,Összeütköznek,Vitatkoznak,Táncolnak,Játszanak,2,1,3,4,mentalization,2,2.7599,1
sat_mc_2,FF028,4,Miért megy a háromszög a sarokba?,Mert örül,Aludni,Mert oda jobban oda illik.,Mert meg van rémülve,4,3,1,2,mentalization,4,3.0298,1
sat_mc_2,FF028,5,Miért megy el a téglalap?,Mert dühös,Mert keres valamit,Mert boldog,"Azért, hogy csak ketten maradjanak itt",1,4,3,2,mentalization,1,3.4921,1
sat_mc_2,FF028,6,Miért megy oda az ovális a háromszöghöz?,Hogy leszidja,Hogy veszekedjenek,Hogy megnyugtassa,Hogy közel legyenek egymáshoz,3,4,2,1,mentalization,3,5.4962,1
sat_mc_2,FF028,9,Miért van a téglalap a háromszög és az ovális között?,Hogy elzárja a háromszöget az oválistól,Hogy ugyanakkora távolságra legyenek egymástól.,Hogy az ovális tudjon játszani,Mert a háromszög fél az oválistól,1,2,3,4,mentalization,1,6.5657,1
sat_mc_2,FF028,13,Mit csinál a háromszög?,A nagy téglalapon kívülre megy.,Táncol,Vitatkozik,Menekül,4,1,2,3,mentalization,4,2.5534,1
sat_mc_2,FF027,3,Mit csinál az ovális és a téglalap?,Összeütköznek,Vitatkoznak,Táncolnak,Játszanak,2,1,3,4,mentalization,2,4.2144,1
sat_mc_2,FF027,4,Miért megy a háromszög a sarokba?,Mert örül,Aludni,Mert oda jobban oda illik.,Mert meg van rémülve,4,3,1,2,mentalization,4,3.0059,1
sat_mc_2,FF027,5,Miért megy el a téglalap?,Mert dühös,Mert keres valamit,Mert boldog,"Azért, hogy csak ketten maradjanak itt",1,4,3,2,mentalization,1,3.6973,1
sat_mc_2,FF027,6,Miért megy oda az ovális a háromszöghöz?,Hogy leszidja,Hogy veszekedjenek,Hogy megnyugtassa,Hogy közel legyenek egymáshoz,3,4,2,1,mentalization,3,1.8055,1
sat_mc_2,FF027,9,Miért van a téglalap a háromszög és az ovális között?,Hogy elzárja a háromszöget az oválistól,Hogy ugyanakkora távolságra legyenek egymástól.,Hogy az ovális tudjon játszani,Mert a háromszög fél az oválistól,1,2,3,4,mentalization,1,14.9303,1
sat_mc_2,FF027,13,Mit csinál a háromszög?,A nagy téglalapon kívülre megy.,Táncol,Vitatkozik,Menekül,4,1,2,3,mentalization,4,2.6363,1
sat_mc_2,BL152,3,Mit csinál az ovális és a téglalap?,Összeütköznek,Vitatkoznak,Táncolnak,Játszanak,2,1,3,4,context,4,13.8531,0
sat_mc_2,BL152,4,Miért megy a háromszög a sarokba?,Mert örül,Aludni,Mert oda jobban oda illik.,Mert meg van rémülve,4,3,1,2,mentalization,4,8.5438,1
sat_mc_2,BL152,5,Miért megy el a téglalap?,Mert dühös,Mert keres valamit,Mert boldog,"Azért, hogy csak ketten maradjanak itt",1,4,3,2,physical,4,16.9864,0
sat_mc_2,BL152,6,Miért megy oda az ovális a háromszöghöz?,Hogy leszidja,Hogy veszekedjenek,Hogy megnyugtassa,Hogy közel legyenek egymáshoz,3,4,2,1,mentalization,3,8.0045,1
sat_mc_2,BL152,9,Miért van a téglalap a háromszög és az ovális között?,Hogy elzárja a háromszöget az oválistól,Hogy ugyanakkora távolságra legyenek egymástól.,Hogy az ovális tudjon játszani,Mert a háromszög fél az oválistól,1,2,3,4,mentalization,1,11.096,1
sat_mc_2,BL152,13,Mit csinál a háromszög?,A nagy téglalapon kívülre megy.,Táncol,Vitatkozik,Menekül,4,1,2,3,physical,1,10.1924,0
sat_mc_2,FF152,3,Mit csinál az ovális és a téglalap?,Összeütköznek,Vitatkoznak,Táncolnak,Játszanak,2,1,3,4,mentalization,2,3.3785,1
sat_mc_2,FF152,4,Miért megy a háromszög a sarokba?,Mert örül,Aludni,Mert oda jobban oda illik.,Mert meg van rémülve,4,3,1,2,mentalization,4,4.3879,1
sat_mc_2,FF152,5,Miért megy el a téglalap?,Mert dühös,Mert keres valamit,Mert boldog,"Azért, hogy csak ketten maradjanak itt",1,4,3,2,mentalization,1,3.8492,1
sat_mc_2,FF152,6,Miért megy oda az ovális a háromszöghöz?,Hogy leszidja,Hogy veszekedjenek,Hogy megnyugtassa,Hogy közel legyenek egymáshoz,3,4,2,1,mentalization,3,2.451,1
sat_mc_2,FF152,9,Miért van a téglalap a háromszög és az ovális között?,Hogy elzárja a háromszöget az oválistól,Hogy ugyanakkora távolságra legyenek egymástól.,Hogy az ovális tudjon játszani,Mert a háromszög fél az oválistól,1,2,3,4,mentalization,1,7.3779,1
sat_mc_2,FF152,13,Mit csinál a háromszög?,A nagy téglalapon kívülre megy.,Táncol,Vitatkozik,Menekül,4,1,2,3,mentalization,4,3.9385,1
sat_mc_2,FF123,3,Mit csinál az ovális és a téglalap?,Összeütköznek,Vitatkoznak,Táncolnak,Játszanak,2,1,3,4,context,4,5.7224,0
sat_mc_2,FF123,4,Miért megy a háromszög a sarokba?,Mert örül,Aludni,Mert oda jobban oda illik.,Mert meg van rémülve,4,3,1,2,context,2,17.3445,0
sat_mc_2,FF123,5,Miért megy el a téglalap?,Mert dühös,Mert keres valamit,Mert boldog,"Azért, hogy csak ketten maradjanak itt",1,4,3,2,context,2,7.0495,0
sat_mc_2,FF123,6,Miért megy oda az ovális a háromszöghöz?,Hogy leszidja,Hogy veszekedjenek,Hogy megnyugtassa,Hogy közel legyenek egymáshoz,3,4,2,1,mentalization,3,3.8891,1
sat_mc_2,FF123,9,Miért van a téglalap a háromszög és az ovális között?,Hogy elzárja a háromszöget az oválistól,Hogy ugyanakkora távolságra legyenek egymástól.,Hogy az ovális tudjon játszani,Mert a háromszög fél az oválistól,1,2,3,4,mentalization,1,11.7366,1
sat_mc_2,FF123,13,Mit csinál a háromszög?,A nagy téglalapon kívülre megy.,Táncol,Vitatkozik,Menekül,4,1,2,3,mentalization,4,2.6977,1
sat_mc_2,FF167,3,Mit csinál az ovális és a téglalap?,Összeütköznek,Vitatkoznak,Táncolnak,Játszanak,2,1,3,4,mentalization,2,14.6351,1
sat_mc_2,FF167,4,Miért megy a háromszög a sarokba?,Mert örül,Aludni,Mert oda jobban oda illik.,Mert meg van rémülve,4,3,1,2,mentalization,4,7.3151,1
sat_mc_2,FF167,5,Miért megy el a téglalap?,Mert dühös,Mert keres valamit,Mert boldog,"Azért, hogy csak ketten maradjanak itt",1,4,3,2,mentalization,1,15.3,1
sat_mc_2,FF167,6,Miért megy oda az ovális a háromszöghöz?,Hogy leszidja,Hogy veszekedjenek,Hogy megnyugtassa,Hogy közel legyenek egymáshoz,3,4,2,1,mentalization,3,4.286,1
sat_mc_2,FF167,9,Miért van a téglalap a háromszög és az ovális között?,Hogy elzárja a háromszöget az oválistól,Hogy ugyanakkora távolságra legyenek egymástól.,Hogy az ovális tudjon játszani,Mert a háromszög fél az oválistól,1,2,3,4,mentalization,1,10.387,1
sat_mc_2,FF167,13,Mit csinál a háromszög?,A nagy téglalapon kívülre megy.,Táncol,Vitatkozik,Menekül,4,1,2,3,mentalization,4,3.1113,1
sat_mc_2,KOR170,3,Mit csinál az ovális és a téglalap?,Összeütköznek,Vitatkoznak,Táncolnak,Játszanak,2,1,3,4,mentalization,2,3.3696,1
sat_mc_2,KOR170,4,Miért megy a háromszög a sarokba?,Mert örül,Aludni,Mert oda jobban oda illik.,Mert meg van rémülve,4,3,1,2,mentalization,4,3.6322,1
sat_mc_2,KOR170,5,Miért megy el a téglalap?,Mert dühös,Mert keres valamit,Mert boldog,"Azért, hogy csak ketten maradjanak itt",1,4,3,2,mentalization,1,3.4684,1
sat_mc_2,KOR170,6,Miért megy oda az ovális a háromszöghöz?,Hogy leszidja,Hogy veszekedjenek,Hogy megnyugtassa,Hogy közel legyenek egymáshoz,3,4,2,1,mentalization,3,3.1865,1
sat_mc_2,KOR170,9,Miért van a téglalap a háromszög és az ovális között?,Hogy elzárja a háromszöget az oválistól,Hogy ugyanakkora távolságra legyenek egymástól.,Hogy az ovális tudjon játszani,Mert a háromszög fél az oválistól,1,2,3,4,mentalization,1,6.8267,1
sat_mc_2,KOR170,13,Mit csinál a háromszög?,A nagy téglalapon kívülre megy.,Táncol,Vitatkozik,Menekül,4,1,2,3,mentalization,4,5.0113,1
sat_mc_2,KOR179,3,Mit csinál az ovális és a téglalap?,Összeütköznek,Vitatkoznak,Táncolnak,Játszanak,2,1,3,4,mentalization,2,3.1404,1
sat_mc_2,KOR179,4,Miért megy a háromszög a sarokba?,Mert örül,Aludni,Mert oda jobban oda illik.,Mert meg van rémülve,4,3,1,2,mentalization,4,3.9383,1
sat_mc_2,KOR179,5,Miért megy el a téglalap?,Mert dühös,Mert keres valamit,Mert boldog,"Azért, hogy csak ketten maradjanak itt",1,4,3,2,mentalization,1,3.5137,1
sat_mc_2,KOR179,6,Miért megy oda az ovális a háromszöghöz?,Hogy leszidja,Hogy veszekedjenek,Hogy megnyugtassa,Hogy közel legyenek egymáshoz,3,4,2,1,mentalization,3,3.5699,1
sat_mc_2,KOR179,9,Miért van a téglalap a háromszög és az ovális között?,Hogy elzárja a háromszöget az oválistól,Hogy ugyanakkora távolságra legyenek egymástól.,Hogy az ovális tudjon játszani,Mert a háromszög fél az oválistól,1,2,3,4,mentalization,1,5.2724,1
sat_mc_2,KOR179,13,Mit csinál a háromszög?,A nagy téglalapon kívülre megy.,Táncol,Vitatkozik,Menekül,4,1,2,3,mentalization,4,2.4267,1
sat_mc_2,BL184,3,Mit csinál az ovális és a téglalap?,Összeütköznek,Vitatkoznak,Táncolnak,Játszanak,2,1,3,4,context,4,15.7836,0
sat_mc_2,BL184,4,Miért megy a háromszög a sarokba?,Mert örül,Aludni,Mert oda jobban oda illik.,Mert meg van rémülve,4,3,1,2,mentalization,4,9.5558,1
sat_mc_2,BL184,5,Miért megy el a téglalap?,Mert dühös,Mert keres valamit,Mert boldog,"Azért, hogy csak ketten maradjanak itt",1,4,3,2,mentalization,1,6.1332,1
sat_mc_2,BL184,6,Miért megy oda az ovális a háromszöghöz?,Hogy leszidja,Hogy veszekedjenek,Hogy megnyugtassa,Hogy közel legyenek egymáshoz,3,4,2,1,mentalization,3,3.8704,1
sat_mc_2,BL184,9,Miért van a téglalap a háromszög és az ovális között?,Hogy elzárja a háromszöget az oválistól,Hogy ugyanakkora távolságra legyenek egymástól.,Hogy az ovális tudjon játszani,Mert a háromszög fél az oválistól,1,2,3,4,mentalization,1,5.595,1
sat_mc_2,BL184,13,Mit csinál a háromszög?,A nagy téglalapon kívülre megy.,Táncol,Vitatkozik,Menekül,4,1,2,3,mentalization,4,7.3466,1
sat_mc_2,KOR171,3,Mit csinál az ovális és a téglalap?,Összeütköznek,Vitatkoznak,Táncolnak,Játszanak,2,1,3,4,movement,3,10.1276,0
sat_mc_2,KOR171,4,Miért megy a háromszög a sarokba?,Mert örül,Aludni,Mert oda jobban oda illik.,Mert meg van rémülve,4,3,1,2,mentalization,4,14.1034,1
sat_mc_2,KOR171,5,Miért megy el a téglalap?,Mert dühös,Mert keres valamit,Mert boldog,"Azért, hogy csak ketten maradjanak itt",1,4,3,2,context,2,13.2327,0
sat_mc_2,KOR171,6,Miért megy oda az ovális a háromszöghöz?,Hogy leszidja,Hogy veszekedjenek,Hogy megnyugtassa,Hogy közel legyenek egymáshoz,3,4,2,1,mentalization,3,6.8609,1
sat_mc_2,KOR171,9,Miért van a téglalap a háromszög és az ovális között?,Hogy elzárja a háromszöget az oválistól,Hogy ugyanakkora távolságra legyenek egymástól.,Hogy az ovális tudjon játszani,Mert a háromszög fél az oválistól,1,2,3,4,movement,3,20.8139,0
sat_mc_2,KOR171,13,Mit csinál a háromszög?,A nagy téglalapon kívülre megy.,Táncol,Vitatkozik,Menekül,4,1,2,3,mentalization,4,5.5576,1
sat_mc_2,BL169,3,Mit csinál az ovális és a téglalap?,Összeütköznek,Vitatkoznak,Táncolnak,Játszanak,2,1,3,4,context,4,5.2032,0
sat_mc_2,BL169,4,Miért megy a háromszög a sarokba?,Mert örül,Aludni,Mert oda jobban oda illik.,Mert meg van rémülve,4,3,1,2,mentalization,4,3.9854,1
sat_mc_2,BL169,5,Miért megy el a téglalap?,Mert dühös,Mert keres valamit,Mert boldog,"Azért, hogy csak ketten maradjanak itt",1,4,3,2,mentalization,1,4.1754,1
sat_mc_2,BL169,6,Miért megy oda az ovális a háromszöghöz?,Hogy leszidja,Hogy veszekedjenek,Hogy megnyugtassa,Hogy közel legyenek egymáshoz,3,4,2,1,mentalization,3,2.0473,1
sat_mc_2,BL169,9,Miért van a téglalap a háromszög és az ovális között?,Hogy elzárja a háromszöget az oválistól,Hogy ugyanakkora távolságra legyenek egymástól.,Hogy az ovális tudjon játszani,Mert a háromszög fél az oválistól,1,2,3,4,mentalization,1,3.4136,1
sat_mc_2,BL169,13,Mit csinál a háromszög?,A nagy téglalapon kívülre megy.,Táncol,Vitatkozik,Menekül,4,1,2,3,physical,1,4.467,0
sat_mc_2,KOR149,3,Mit csinál az ovális és a téglalap?,Összeütköznek,Vitatkoznak,Táncolnak,Játszanak,2,1,3,4,mentalization,2,6.9812,1
sat_mc_2,KOR149,4,Miért megy a háromszög a sarokba?,Mert örül,Aludni,Mert oda jobban oda illik.,Mert meg van rémülve,4,3,1,2,context,2,9.6141,0
sat_mc_2,KOR149,5,Miért megy el a téglalap?,Mert dühös,Mert keres valamit,Mert boldog,"Azért, hogy csak ketten maradjanak itt",1,4,3,2,mentalization,1,6.2304,1
sat_mc_2,KOR149,6,Miért megy oda az ovális a háromszöghöz?,Hogy leszidja,Hogy veszekedjenek,Hogy megnyugtassa,Hogy közel legyenek egymáshoz,3,4,2,1,mentalization,3,7.2155,1
sat_mc_2,KOR149,9,Miért van a téglalap a háromszög és az ovális között?,Hogy elzárja a háromszöget az oválistól,Hogy ugyanakkora távolságra legyenek egymástól.,Hogy az ovális tudjon játszani,Mert a háromszög fél az oválistól,1,2,3,4,context,4,17.8903,0
sat_mc_2,KOR149,13,Mit csinál a háromszög?,A nagy téglalapon kívülre megy.,Táncol,Vitatkozik,Menekül,4,1,2,3,mentalization,4,7.3717,1
sat_mc_2,KOR139,3,Mit csinál az ovális és a téglalap?,Összeütköznek,Vitatkoznak,Táncolnak,Játszanak,2,1,3,4,mentalization,2,3.7774,1
sat_mc_2,KOR139,4,Miért megy a háromszög a sarokba?,Mert örül,Aludni,Mert oda jobban oda illik.,Mert meg van rémülve,4,3,1,2,mentalization,4,5.2018,1
sat_mc_2,KOR139,5,Miért megy el a téglalap?,Mert dühös,Mert keres valamit,Mert boldog,"Azért, hogy csak ketten maradjanak itt",1,4,3,2,mentalization,1,5.319,1
sat_mc_2,KOR139,6,Miért megy oda az ovális a háromszöghöz?,Hogy leszidja,Hogy veszekedjenek,Hogy megnyugtassa,Hogy közel legyenek egymáshoz,3,4,2,1,mentalization,3,3.59,1
sat_mc_2,KOR139,9,Miért van a téglalap a háromszög és az ovális között?,Hogy elzárja a háromszöget az oválistól,Hogy ugyanakkora távolságra legyenek egymástól.,Hogy az ovális tudjon játszani,Mert a háromszög fél az oválistól,1,2,3,4,mentalization,1,13.5604,1
sat_mc_2,KOR139,13,Mit csinál a háromszög?,A nagy téglalapon kívülre megy.,Táncol,Vitatkozik,Menekül,4,1,2,3,mentalization,4,5.2321,1
sat_mc_2,FF008,3,Mit csinál az ovális és a téglalap?,Összeütköznek,Vitatkoznak,Táncolnak,Játszanak,2,1,3,4,physical,1,4.331,0
sat_mc_2,FF008,4,Miért megy a háromszög a sarokba?,Mert örül,Aludni,Mert oda jobban oda illik.,Mert meg van rémülve,4,3,1,2,mentalization,4,5.374,1
sat_mc_2,FF008,5,Miért megy el a téglalap?,Mert dühös,Mert keres valamit,Mert boldog,"Azért, hogy csak ketten maradjanak itt",1,4,3,2,mentalization,1,6.024,1
sat_mc_2,FF008,6,Miért megy oda az ovális a háromszöghöz?,Hogy leszidja,Hogy veszekedjenek,Hogy megnyugtassa,Hogy közel legyenek egymáshoz,3,4,2,1,mentalization,3,2.37,1
sat_mc_2,FF008,9,Miért van a téglalap a háromszög és az ovális között?,Hogy elzárja a háromszöget az oválistól,Hogy ugyanakkora távolságra legyenek egymástól.,Hogy az ovális tudjon játszani,Mert a háromszög fél az oválistól,1,2,3,4,mentalization,1,14.493,1
sat_mc_2,FF008,13,Mit csinál a háromszög?,A nagy téglalapon kívülre megy.,Táncol,Vitatkozik,Menekül,4,1,2,3,movement,2,10.016,0
sat_mc_2,FF012,3,Mit csinál az ovális és a téglalap?,Összeütköznek,Vitatkoznak,Táncolnak,Játszanak,2,1,3,4,mentalization,2,16.6327,1
sat_mc_2,FF012,4,Miért megy a háromszög a sarokba?,Mert örül,Aludni,Mert oda jobban oda illik.,Mert meg van rémülve,4,3,1,2,mentalization,4,5.9362,1
sat_mc_2,FF012,5,Miért megy el a téglalap?,Mert dühös,Mert keres valamit,Mert boldog,"Azért, hogy csak ketten maradjanak itt",1,4,3,2,mentalization,1,4.4532,1
sat_mc_2,FF012,6,Miért megy oda az ovális a háromszöghöz?,Hogy leszidja,Hogy veszekedjenek,Hogy megnyugtassa,Hogy közel legyenek egymáshoz,3,4,2,1,mentalization,3,3.3184,1
sat_mc_2,FF012,9,Miért van a téglalap a háromszög és az ovális között?,Hogy elzárja a háromszöget az oválistól,Hogy ugyanakkora távolságra legyenek egymástól.,Hogy az ovális tudjon játszani,Mert a háromszög fél az oválistól,1,2,3,4,mentalization,1,21.2061,1
sat_mc_2,FF012,13,Mit csinál a háromszög?,A nagy téglalapon kívülre megy.,Táncol,Vitatkozik,Menekül,4,1,2,3,mentalization,4,3.9955,1
sat_mc_2,182867,3,Mit csinál az ovális és a téglalap?,Összeütköznek,Vitatkoznak,Táncolnak,Játszanak,2,1,3,4,mentalization,2,16.2944,1
sat_mc_2,182867,4,Miért megy a háromszög a sarokba?,Mert örül,Aludni,Mert oda jobban oda illik.,Mert meg van rémülve,4,3,1,2,mentalization,4,4.4081,1
sat_mc_2,182867,5,Miért megy el a téglalap?,Mert dühös,Mert keres valamit,Mert boldog,"Azért, hogy csak ketten maradjanak itt",1,4,3,2,mentalization,1,6.2581,1
sat_mc_2,182867,6,Miért megy oda az ovális a háromszöghöz?,Hogy leszidja,Hogy veszekedjenek,Hogy megnyugtassa,Hogy közel legyenek egymáshoz,3,4,2,1,mentalization,3,6.8665,1
sat_mc_2,182867,9,Miért van a téglalap a háromszög és az ovális között?,Hogy elzárja a háromszöget az oválistól,Hogy ugyanakkora távolságra legyenek egymástól.,Hogy az ovális tudjon játszani,Mert a háromszög fél az oválistól,1,2,3,4,mentalization,1,30.3265,1
sat_mc_2,182867,13,Mit csinál a háromszög?,A nagy téglalapon kívülre megy.,Táncol,Vitatkozik,Menekül,4,1,2,3,mentalization,4,13.8758,1
sat_mc_2,FF023,3,Mit csinál az ovális és a téglalap?,Összeütköznek,Vitatkoznak,Táncolnak,Játszanak,2,1,3,4,mentalization,2,3.8994,1
sat_mc_2,FF023,4,Miért megy a háromszög a sarokba?,Mert örül,Aludni,Mert oda jobban oda illik.,Mert meg van rémülve,4,3,1,2,mentalization,4,4.2576,1
sat_mc_2,FF023,5,Miért megy el a téglalap?,Mert dühös,Mert keres valamit,Mert boldog,"Azért, hogy csak ketten maradjanak itt",1,4,3,2,mentalization,1,5.1527,1
sat_mc_2,FF023,6,Miért megy oda az ovális a háromszöghöz?,Hogy leszidja,Hogy veszekedjenek,Hogy megnyugtassa,Hogy közel legyenek egymáshoz,3,4,2,1,mentalization,3,3.4402,1
sat_mc_2,FF023,9,Miért van a téglalap a háromszög és az ovális között?,Hogy elzárja a háromszöget az oválistól,Hogy ugyanakkora távolságra legyenek egymástól.,Hogy az ovális tudjon játszani,Mert a háromszög fél az oválistól,1,2,3,4,mentalization,1,14.6913,1
sat_mc_2,FF023,13,Mit csinál a háromszög?,A nagy téglalapon kívülre megy.,Táncol,Vitatkozik,Menekül,4,1,2,3,movement,2,13.7372,0
sat_mc_2,FF108,3,Mit csinál az ovális és a téglalap?,Összeütköznek,Vitatkoznak,Táncolnak,Játszanak,2,1,3,4,mentalization,2,3.495,1
sat_mc_2,FF108,4,Miért megy a háromszög a sarokba?,Mert örül,Aludni,Mert oda jobban oda illik.,Mert meg van rémülve,4,3,1,2,mentalization,4,5.039,1
sat_mc_2,FF108,5,Miért megy el a téglalap?,Mert dühös,Mert keres valamit,Mert boldog,"Azért, hogy csak ketten maradjanak itt",1,4,3,2,mentalization,1,9.295,1
sat_mc_2,FF108,6,Miért megy oda az ovális a háromszöghöz?,Hogy leszidja,Hogy veszekedjenek,Hogy megnyugtassa,Hogy közel legyenek egymáshoz,3,4,2,1,mentalization,3,2.281,1
sat_mc_2,FF108,9,Miért van a téglalap a háromszög és az ovális között?,Hogy elzárja a háromszöget az oválistól,Hogy ugyanakkora távolságra legyenek egymástól.,Hogy az ovális tudjon játszani,Mert a háromszög fél az oválistól,1,2,3,4,mentalization,1,7.126,1
sat_mc_2,FF108,13,Mit csinál a háromszög?,A nagy téglalapon kívülre megy.,Táncol,Vitatkozik,Menekül,4,1,2,3,mentalization,4,2.216,1
sat_mc_2,BL157,3,Mit csinál az ovális és a téglalap?,Összeütköznek,Vitatkoznak,Táncolnak,Játszanak,2,1,3,4,mentalization,2,4.8484,1
sat_mc_2,BL157,4,Miért megy a háromszög a sarokba?,Mert örül,Aludni,Mert oda jobban oda illik.,Mert meg van rémülve,4,3,1,2,mentalization,4,3.0392,1
sat_mc_2,BL157,5,Miért megy el a téglalap?,Mert dühös,Mert keres valamit,Mert boldog,"Azért, hogy csak ketten maradjanak itt",1,4,3,2,mentalization,1,5.5038,1
sat_mc_2,BL157,6,Miért megy oda az ovális a háromszöghöz?,Hogy leszidja,Hogy veszekedjenek,Hogy megnyugtassa,Hogy közel legyenek egymáshoz,3,4,2,1,mentalization,3,5.0282,1
sat_mc_2,BL157,9,Miért van a téglalap a háromszög és az ovális között?,Hogy elzárja a háromszöget az oválistól,Hogy ugyanakkora távolságra legyenek egymástól.,Hogy az ovális tudjon játszani,Mert a háromszög fél az oválistól,1,2,3,4,physical,2,16.9918,0
sat_mc_2,BL157,13,Mit csinál a háromszög?,A nagy téglalapon kívülre megy.,Táncol,Vitatkozik,Menekül,4,1,2,3,mentalization,4,5.3493,1
sat_mc_2,FF139,3,Mit csinál az ovális és a téglalap?,Összeütköznek,Vitatkoznak,Táncolnak,Játszanak,2,1,3,4,mentalization,2,5.8336,1
sat_mc_2,FF139,4,Miért megy a háromszög a sarokba?,Mert örül,Aludni,Mert oda jobban oda illik.,Mert meg van rémülve,4,3,1,2,mentalization,4,4.1503,1
sat_mc_2,FF139,5,Miért megy el a téglalap?,Mert dühös,Mert keres valamit,Mert boldog,"Azért, hogy csak ketten maradjanak itt",1,4,3,2,context,2,7.1463,0
sat_mc_2,FF139,6,Miért megy oda az ovális a háromszöghöz?,Hogy leszidja,Hogy veszekedjenek,Hogy megnyugtassa,Hogy közel legyenek egymáshoz,3,4,2,1,mentalization,3,8.3209,1
sat_mc_2,FF139,9,Miért van a téglalap a háromszög és az ovális között?,Hogy elzárja a háromszöget az oválistól,Hogy ugyanakkora távolságra legyenek egymástól.,Hogy az ovális tudjon játszani,Mert a háromszög fél az oválistól,1,2,3,4,mentalization,1,11.8632,1
sat_mc_2,FF139,13,Mit csinál a háromszög?,A nagy téglalapon kívülre megy.,Táncol,Vitatkozik,Menekül,4,1,2,3,mentalization,4,4.0675,1
sat_mc_2,FF125,3,Mit csinál az ovális és a téglalap?,Összeütköznek,Vitatkoznak,Táncolnak,Játszanak,2,1,3,4,mentalization,2,14.8429,1
sat_mc_2,FF125,4,Miért megy a háromszög a sarokba?,Mert örül,Aludni,Mert oda jobban oda illik.,Mert meg van rémülve,4,3,1,2,mentalization,4,5.9228,1
sat_mc_2,FF125,5,Miért megy el a téglalap?,Mert dühös,Mert keres valamit,Mert boldog,"Azért, hogy csak ketten maradjanak itt",1,4,3,2,mentalization,1,8.1135,1
sat_mc_2,FF125,6,Miért megy oda az ovális a háromszöghöz?,Hogy leszidja,Hogy veszekedjenek,Hogy megnyugtassa,Hogy közel legyenek egymáshoz,3,4,2,1,mentalization,3,3.4168,1
sat_mc_2,FF125,9,Miért van a téglalap a háromszög és az ovális között?,Hogy elzárja a háromszöget az oválistól,Hogy ugyanakkora távolságra legyenek egymástól.,Hogy az ovális tudjon játszani,Mert a háromszög fél az oválistól,1,2,3,4,mentalization,1,33.4437,1
sat_mc_2,FF125,13,Mit csinál a háromszög?,A nagy téglalapon kívülre megy.,Táncol,Vitatkozik,Menekül,4,1,2,3,physical,1,11.1335,0
sat_mc_2,FF169,3,Mit csinál az ovális és a téglalap?,Összeütköznek,Vitatkoznak,Táncolnak,Játszanak,2,1,3,4,mentalization,2,4.9707,1
sat_mc_2,FF169,4,Miért megy a háromszög a sarokba?,Mert örül,Aludni,Mert oda jobban oda illik.,Mert meg van rémülve,4,3,1,2,mentalization,4,4.6773,1
sat_mc_2,FF169,5,Miért megy el a téglalap?,Mert dühös,Mert keres valamit,Mert boldog,"Azért, hogy csak ketten maradjanak itt",1,4,3,2,mentalization,1,6.4243,1
sat_mc_2,FF169,6,Miért megy oda az ovális a háromszöghöz?,Hogy leszidja,Hogy veszekedjenek,Hogy megnyugtassa,Hogy közel legyenek egymáshoz,3,4,2,1,mentalization,3,4.5156,1
sat_mc_2,FF169,9,Miért van a téglalap a háromszög és az ovális között?,Hogy elzárja a háromszöget az oválistól,Hogy ugyanakkora távolságra legyenek egymástól.,Hogy az ovális tudjon játszani,Mert a háromszög fél az oválistól,1,2,3,4,mentalization,1,8.0493,1
sat_mc_2,FF169,13,Mit csinál a háromszög?,A nagy téglalapon kívülre megy.,Táncol,Vitatkozik,Menekül,4,1,2,3,mentalization,4,8.0433,1
sat_mc_2,KOR183,3,Mit csinál az ovális és a téglalap?,Összeütköznek,Vitatkoznak,Táncolnak,Játszanak,2,1,3,4,physical,1,5.0511,0
sat_mc_2,KOR183,4,Miért megy a háromszög a sarokba?,Mert örül,Aludni,Mert oda jobban oda illik.,Mert meg van rémülve,4,3,1,2,context,2,15.2538,0
sat_mc_2,KOR183,5,Miért megy el a téglalap?,Mert dühös,Mert keres valamit,Mert boldog,"Azért, hogy csak ketten maradjanak itt",1,4,3,2,context,2,3.8625,0
sat_mc_2,KOR183,6,Miért megy oda az ovális a háromszöghöz?,Hogy leszidja,Hogy veszekedjenek,Hogy megnyugtassa,Hogy közel legyenek egymáshoz,3,4,2,1,physical,4,7.4861,0
sat_mc_2,KOR183,9,Miért van a téglalap a háromszög és az ovális között?,Hogy elzárja a háromszöget az oválistól,Hogy ugyanakkora távolságra legyenek egymástól.,Hogy az ovális tudjon játszani,Mert a háromszög fél az oválistól,1,2,3,4,mentalization,1,29.4874,1
sat_mc_2,KOR183,13,Mit csinál a háromszög?,A nagy téglalapon kívülre megy.,Táncol,Vitatkozik,Menekül,4,1,2,3,physical,1,47.1683,0
sat_mc_2,BL199,3,Mit csinál az ovális és a téglalap?,Összeütköznek,Vitatkoznak,Táncolnak,Játszanak,2,1,3,4,mentalization,2,3.758,1
sat_mc_2,BL199,4,Miért megy a háromszög a sarokba?,Mert örül,Aludni,Mert oda jobban oda illik.,Mert meg van rémülve,4,3,1,2,mentalization,4,4.477,1
sat_mc_2,BL199,5,Miért megy el a téglalap?,Mert dühös,Mert keres valamit,Mert boldog,"Azért, hogy csak ketten maradjanak itt",1,4,3,2,physical,4,5.782,0
sat_mc_2,BL199,6,Miért megy oda az ovális a háromszöghöz?,Hogy leszidja,Hogy veszekedjenek,Hogy megnyugtassa,Hogy közel legyenek egymáshoz,3,4,2,1,mentalization,3,3.717,1
sat_mc_2,BL199,9,Miért van a téglalap a háromszög és az ovális között?,Hogy elzárja a háromszöget az oválistól,Hogy ugyanakkora távolságra legyenek egymástól.,Hogy az ovális tudjon játszani,Mert a háromszög fél az oválistól,1,2,3,4,mentalization,1,7.166,1
sat_mc_2,BL199,13,Mit csinál a háromszög?,A nagy téglalapon kívülre megy.,Táncol,Vitatkozik,Menekül,4,1,2,3,mentalization,4,4.41,1
sat_mc_2,KOR145,3,Mit csinál az ovális és a téglalap?,Összeütköznek,Vitatkoznak,Táncolnak,Játszanak,2,1,3,4,mentalization,2,1.3635,1
sat_mc_2,KOR145,4,Miért megy a háromszög a sarokba?,Mert örül,Aludni,Mert oda jobban oda illik.,Mert meg van rémülve,4,3,1,2,mentalization,4,9.8277,1
sat_mc_2,KOR145,5,Miért megy el a téglalap?,Mert dühös,Mert keres valamit,Mert boldog,"Azért, hogy csak ketten maradjanak itt",1,4,3,2,mentalization,1,4.2352,1
sat_mc_2,KOR145,6,Miért megy oda az ovális a háromszöghöz?,Hogy leszidja,Hogy veszekedjenek,Hogy megnyugtassa,Hogy közel legyenek egymáshoz,3,4,2,1,mentalization,3,3.6947,1
sat_mc_2,KOR145,9,Miért van a téglalap a háromszög és az ovális között?,Hogy elzárja a háromszöget az oválistól,Hogy ugyanakkora távolságra legyenek egymástól.,Hogy az ovális tudjon játszani,Mert a háromszög fél az oválistól,1,2,3,4,physical,2,5.2284,0
sat_mc_2,KOR145,13,Mit csinál a háromszög?,A nagy téglalapon kívülre megy.,Táncol,Vitatkozik,Menekül,4,1,2,3,physical,1,4.7709,0
sat_mc_2,KOR146,3,Mit csinál az ovális és a téglalap?,Összeütköznek,Vitatkoznak,Táncolnak,Játszanak,2,1,3,4,physical,1,3.6042,0
sat_mc_2,KOR146,4,Miért megy a háromszög a sarokba?,Mert örül,Aludni,Mert oda jobban oda illik.,Mert meg van rémülve,4,3,1,2,mentalization,4,6.8855,1
sat_mc_2,KOR146,5,Miért megy el a téglalap?,Mert dühös,Mert keres valamit,Mert boldog,"Azért, hogy csak ketten maradjanak itt",1,4,3,2,mentalization,1,5.9212,1
sat_mc_2,KOR146,6,Miért megy oda az ovális a háromszöghöz?,Hogy leszidja,Hogy veszekedjenek,Hogy megnyugtassa,Hogy közel legyenek egymáshoz,3,4,2,1,mentalization,3,7.021,1
sat_mc_2,KOR146,9,Miért van a téglalap a háromszög és az ovális között?,Hogy elzárja a háromszöget az oválistól,Hogy ugyanakkora távolságra legyenek egymástól.,Hogy az ovális tudjon játszani,Mert a háromszög fél az oválistól,1,2,3,4,mentalization,1,15.8434,1
sat_mc_2,KOR146,13,Mit csinál a háromszög?,A nagy téglalapon kívülre megy.,Táncol,Vitatkozik,Menekül,4,1,2,3,physical,1,5.4552,0
sat_mc_2,KOR151,3,Mit csinál az ovális és a téglalap?,Összeütköznek,Vitatkoznak,Táncolnak,Játszanak,2,1,3,4,mentalization,2,8.1933,1
sat_mc_2,KOR151,4,Miért megy a háromszög a sarokba?,Mert örül,Aludni,Mert oda jobban oda illik.,Mert meg van rémülve,4,3,1,2,mentalization,4,5.2386,1
sat_mc_2,KOR151,5,Miért megy el a téglalap?,Mert dühös,Mert keres valamit,Mert boldog,"Azért, hogy csak ketten maradjanak itt",1,4,3,2,physical,4,11.5541,0
sat_mc_2,KOR151,6,Miért megy oda az ovális a háromszöghöz?,Hogy leszidja,Hogy veszekedjenek,Hogy megnyugtassa,Hogy közel legyenek egymáshoz,3,4,2,1,physical,4,9.6273,0
sat_mc_2,KOR151,9,Miért van a téglalap a háromszög és az ovális között?,Hogy elzárja a háromszöget az oválistól,Hogy ugyanakkora távolságra legyenek egymástól.,Hogy az ovális tudjon játszani,Mert a háromszög fél az oválistól,1,2,3,4,mentalization,1,24.8655,1
sat_mc_2,KOR151,13,Mit csinál a háromszög?,A nagy téglalapon kívülre megy.,Táncol,Vitatkozik,Menekül,4,1,2,3,physical,1,4.0015,0
sat_mc_2,KOR133,3,Mit csinál az ovális és a téglalap?,Összeütköznek,Vitatkoznak,Táncolnak,Játszanak,2,1,3,4,context,4,7.7457,0
sat_mc_2,KOR133,4,Miért megy a háromszög a sarokba?,Mert örül,Aludni,Mert oda jobban oda illik.,Mert meg van rémülve,4,3,1,2,mentalization,4,6.4131,1
sat_mc_2,KOR133,5,Miért megy el a téglalap?,Mert dühös,Mert keres valamit,Mert boldog,"Azért, hogy csak ketten maradjanak itt",1,4,3,2,movement,3,7.7827,0
sat_mc_2,KOR133,6,Miért megy oda az ovális a háromszöghöz?,Hogy leszidja,Hogy veszekedjenek,Hogy megnyugtassa,Hogy közel legyenek egymáshoz,3,4,2,1,mentalization,3,3.9422,1
sat_mc_2,KOR133,9,Miért van a téglalap a háromszög és az ovális között?,Hogy elzárja a háromszöget az oválistól,Hogy ugyanakkora távolságra legyenek egymástól.,Hogy az ovális tudjon játszani,Mert a háromszög fél az oválistól,1,2,3,4,movement,3,10.7497,0
sat_mc_2,KOR133,13,Mit csinál a háromszög?,A nagy téglalapon kívülre megy.,Táncol,Vitatkozik,Menekül,4,1,2,3,mentalization,4,6.2474,1
sat_mc_2,KOR131,3,Mit csinál az ovális és a téglalap?,Összeütköznek,Vitatkoznak,Táncolnak,Játszanak,2,1,3,4,context,4,11.8891,0
sat_mc_2,KOR131,4,Miért megy a háromszög a sarokba?,Mert örül,Aludni,Mert oda jobban oda illik.,Mert meg van rémülve,4,3,1,2,mentalization,4,8.6359,1
sat_mc_2,KOR131,5,Miért megy el a téglalap?,Mert dühös,Mert keres valamit,Mert boldog,"Azért, hogy csak ketten maradjanak itt",1,4,3,2,mentalization,1,8.4958,1
sat_mc_2,KOR131,6,Miért megy oda az ovális a háromszöghöz?,Hogy leszidja,Hogy veszekedjenek,Hogy megnyugtassa,Hogy közel legyenek egymáshoz,3,4,2,1,mentalization,3,7.3358,1
sat_mc_2,KOR131,9,Miért van a téglalap a háromszög és az ovális között?,Hogy elzárja a háromszöget az oválistól,Hogy ugyanakkora távolságra legyenek egymástól.,Hogy az ovális tudjon játszani,Mert a háromszög fél az oválistól,1,2,3,4,movement,3,24.6506,0
sat_mc_2,KOR131,13,Mit csinál a háromszög?,A nagy téglalapon kívülre megy.,Táncol,Vitatkozik,Menekül,4,1,2,3,physical,1,8.9327,0
sat_mc_2,KOR137,3,Mit csinál az ovális és a téglalap?,Összeütköznek,Vitatkoznak,Táncolnak,Játszanak,2,1,3,4,physical,1,5.5866,0
sat_mc_2,KOR137,4,Miért megy a háromszög a sarokba?,Mert örül,Aludni,Mert oda jobban oda illik.,Mert meg van rémülve,4,3,1,2,physical,3,10.0129,0
sat_mc_2,KOR137,5,Miért megy el a téglalap?,Mert dühös,Mert keres valamit,Mert boldog,"Azért, hogy csak ketten maradjanak itt",1,4,3,2,physical,4,14.346,0
sat_mc_2,KOR137,6,Miért megy oda az ovális a háromszöghöz?,Hogy leszidja,Hogy veszekedjenek,Hogy megnyugtassa,Hogy közel legyenek egymáshoz,3,4,2,1,physical,4,9.7187,0
sat_mc_2,KOR137,9,Miért van a téglalap a háromszög és az ovális között?,Hogy elzárja a háromszöget az oválistól,Hogy ugyanakkora távolságra legyenek egymástól.,Hogy az ovális tudjon játszani,Mert a háromszög fél az oválistól,1,2,3,4,physical,2,17.1801,0
sat_mc_2,KOR137,13,Mit csinál a háromszög?,A nagy téglalapon kívülre megy.,Táncol,Vitatkozik,Menekül,4,1,2,3,physical,1,5.7342,0
sat_mc_2,FF013,3,Mit csinál az ovális és a téglalap?,Összeütköznek,Vitatkoznak,Táncolnak,Játszanak,2,1,3,4,context,4,7.0797,0
sat_mc_2,FF013,4,Miért megy a háromszög a sarokba?,Mert örül,Aludni,Mert oda jobban oda illik.,Mert meg van rémülve,4,3,1,2,mentalization,4,4.5281,1
sat_mc_2,FF013,5,Miért megy el a téglalap?,Mert dühös,Mert keres valamit,Mert boldog,"Azért, hogy csak ketten maradjanak itt",1,4,3,2,mentalization,1,2.9389,1
sat_mc_2,FF013,6,Miért megy oda az ovális a háromszöghöz?,Hogy leszidja,Hogy veszekedjenek,Hogy megnyugtassa,Hogy közel legyenek egymáshoz,3,4,2,1,mentalization,3,2.7732,1
sat_mc_2,FF013,9,Miért van a téglalap a háromszög és az ovális között?,Hogy elzárja a háromszöget az oválistól,Hogy ugyanakkora távolságra legyenek egymástól.,Hogy az ovális tudjon játszani,Mert a háromszög fél az oválistól,1,2,3,4,mentalization,1,12.4496,1
sat_mc_2,FF013,13,Mit csinál a háromszög?,A nagy téglalapon kívülre megy.,Táncol,Vitatkozik,Menekül,4,1,2,3,mentalization,4,4.756,1
sat_mc_2,FF018,3,Mit csinál az ovális és a téglalap?,Összeütköznek,Vitatkoznak,Táncolnak,Játszanak,2,1,3,4,mentalization,2,3.6998,1
sat_mc_2,FF018,4,Miért megy a háromszög a sarokba?,Mert örül,Aludni,Mert oda jobban oda illik.,Mert meg van rémülve,4,3,1,2,mentalization,4,3.1565,1
sat_mc_2,FF018,5,Miért megy el a téglalap?,Mert dühös,Mert keres valamit,Mert boldog,"Azért, hogy csak ketten maradjanak itt",1,4,3,2,mentalization,1,3.2469,1
sat_mc_2,FF018,6,Miért megy oda az ovális a háromszöghöz?,Hogy leszidja,Hogy veszekedjenek,Hogy megnyugtassa,Hogy közel legyenek egymáshoz,3,4,2,1,mentalization,3,2.5216,1
sat_mc_2,FF018,9,Miért van a téglalap a háromszög és az ovális között?,Hogy elzárja a háromszöget az oválistól,Hogy ugyanakkora távolságra legyenek egymástól.,Hogy az ovális tudjon játszani,Mert a háromszög fél az oválistól,1,2,3,4,mentalization,1,12.919,1
sat_mc_2,FF018,13,Mit csinál a háromszög?,A nagy téglalapon kívülre megy.,Táncol,Vitatkozik,Menekül,4,1,2,3,mentalization,4,3.9739,1
sat_mc_2,FF022,3,Mit csinál az ovális és a téglalap?,Összeütköznek,Vitatkoznak,Táncolnak,Játszanak,2,1,3,4,mentalization,2,3.6143,1
sat_mc_2,FF022,4,Miért megy a háromszög a sarokba?,Mert örül,Aludni,Mert oda jobban oda illik.,Mert meg van rémülve,4,3,1,2,mentalization,4,3.8327,1
sat_mc_2,FF022,5,Miért megy el a téglalap?,Mert dühös,Mert keres valamit,Mert boldog,"Azért, hogy csak ketten maradjanak itt",1,4,3,2,mentalization,1,4.1465,1
sat_mc_2,FF022,6,Miért megy oda az ovális a háromszöghöz?,Hogy leszidja,Hogy veszekedjenek,Hogy megnyugtassa,Hogy közel legyenek egymáshoz,3,4,2,1,mentalization,3,3.0704,1
sat_mc_2,FF022,9,Miért van a téglalap a háromszög és az ovális között?,Hogy elzárja a háromszöget az oválistól,Hogy ugyanakkora távolságra legyenek egymástól.,Hogy az ovális tudjon játszani,Mert a háromszög fél az oválistól,1,2,3,4,mentalization,1,9.8142,1
sat_mc_2,FF022,13,Mit csinál a háromszög?,A nagy téglalapon kívülre megy.,Táncol,Vitatkozik,Menekül,4,1,2,3,mentalization,4,3.4016,1
sat_mc_2,FF042,3,Mit csinál az ovális és a téglalap?,Összeütköznek,Vitatkoznak,Táncolnak,Játszanak,2,1,3,4,movement,3,14.0419,0
sat_mc_2,FF042,4,Miért megy a háromszög a sarokba?,Mert örül,Aludni,Mert oda jobban oda illik.,Mert meg van rémülve,4,3,1,2,mentalization,4,7.4182,1
sat_mc_2,FF042,5,Miért megy el a téglalap?,Mert dühös,Mert keres valamit,Mert boldog,"Azért, hogy csak ketten maradjanak itt",1,4,3,2,context,2,10.9264,0
sat_mc_2,FF042,6,Miért megy oda az ovális a háromszöghöz?,Hogy leszidja,Hogy veszekedjenek,Hogy megnyugtassa,Hogy közel legyenek egymáshoz,3,4,2,1,mentalization,3,4.3832,1
sat_mc_2,FF042,9,Miért van a téglalap a háromszög és az ovális között?,Hogy elzárja a háromszöget az oválistól,Hogy ugyanakkora távolságra legyenek egymástól.,Hogy az ovális tudjon játszani,Mert a háromszög fél az oválistól,1,2,3,4,mentalization,1,11.9461,1
sat_mc_2,FF042,13,Mit csinál a háromszög?,A nagy téglalapon kívülre megy.,Táncol,Vitatkozik,Menekül,4,1,2,3,mentalization,4,3.384,1
sat_mc_2,FF168,3,Mit csinál az ovális és a téglalap?,Összeütköznek,Vitatkoznak,Táncolnak,Játszanak,2,1,3,4,movement,3,4.5632,0
sat_mc_2,FF168,4,Miért megy a háromszög a sarokba?,Mert örül,Aludni,Mert oda jobban oda illik.,Mert meg van rémülve,4,3,1,2,mentalization,4,7.5003,1
sat_mc_2,FF168,5,Miért megy el a téglalap?,Mert dühös,Mert keres valamit,Mert boldog,"Azért, hogy csak ketten maradjanak itt",1,4,3,2,mentalization,1,4.091,1
sat_mc_2,FF168,6,Miért megy oda az ovális a háromszöghöz?,Hogy leszidja,Hogy veszekedjenek,Hogy megnyugtassa,Hogy közel legyenek egymáshoz,3,4,2,1,mentalization,3,2.5044,1
sat_mc_2,FF168,9,Miért van a téglalap a háromszög és az ovális között?,Hogy elzárja a háromszöget az oválistól,Hogy ugyanakkora távolságra legyenek egymástól.,Hogy az ovális tudjon játszani,Mert a háromszög fél az oválistól,1,2,3,4,mentalization,1,7.6241,1
sat_mc_2,FF168,13,Mit csinál a háromszög?,A nagy téglalapon kívülre megy.,Táncol,Vitatkozik,Menekül,4,1,2,3,physical,1,5.9996,0
sat_mc_2,FF145,3,Mit csinál az ovális és a téglalap?,Összeütköznek,Vitatkoznak,Táncolnak,Játszanak,2,1,3,4,mentalization,2,8.1433,1
sat_mc_2,FF145,4,Miért megy a háromszög a sarokba?,Mert örül,Aludni,Mert oda jobban oda illik.,Mert meg van rémülve,4,3,1,2,mentalization,4,3.4538,1
sat_mc_2,FF145,5,Miért megy el a téglalap?,Mert dühös,Mert keres valamit,Mert boldog,"Azért, hogy csak ketten maradjanak itt",1,4,3,2,mentalization,1,4.047,1
sat_mc_2,FF145,6,Miért megy oda az ovális a háromszöghöz?,Hogy leszidja,Hogy veszekedjenek,Hogy megnyugtassa,Hogy közel legyenek egymáshoz,3,4,2,1,mentalization,3,3.8819,1
sat_mc_2,FF145,9,Miért van a téglalap a háromszög és az ovális között?,Hogy elzárja a háromszöget az oválistól,Hogy ugyanakkora távolságra legyenek egymástól.,Hogy az ovális tudjon játszani,Mert a háromszög fél az oválistól,1,2,3,4,mentalization,1,8.3592,1
sat_mc_2,FF145,13,Mit csinál a háromszög?,A nagy téglalapon kívülre megy.,Táncol,Vitatkozik,Menekül,4,1,2,3,mentalization,4,2.8533,1
sat_mc_2,FF163,3,Mit csinál az ovális és a téglalap?,Összeütköznek,Vitatkoznak,Táncolnak,Játszanak,2,1,3,4,mentalization,2,5.0604,1
sat_mc_2,FF163,4,Miért megy a háromszög a sarokba?,Mert örül,Aludni,Mert oda jobban oda illik.,Mert meg van rémülve,4,3,1,2,mentalization,4,16.0421,1
sat_mc_2,FF163,5,Miért megy el a téglalap?,Mert dühös,Mert keres valamit,Mert boldog,"Azért, hogy csak ketten maradjanak itt",1,4,3,2,mentalization,1,15.2559,1
sat_mc_2,FF163,6,Miért megy oda az ovális a háromszöghöz?,Hogy leszidja,Hogy veszekedjenek,Hogy megnyugtassa,Hogy közel legyenek egymáshoz,3,4,2,1,movement,2,2.0597,0
sat_mc_2,FF163,9,Miért van a téglalap a háromszög és az ovális között?,Hogy elzárja a háromszöget az oválistól,Hogy ugyanakkora távolságra legyenek egymástól.,Hogy az ovális tudjon játszani,Mert a háromszög fél az oválistól,1,2,3,4,physical,2,5.9439,0
sat_mc_2,FF163,13,Mit csinál a háromszög?,A nagy téglalapon kívülre megy.,Táncol,Vitatkozik,Menekül,4,1,2,3,mentalization,4,0.0002,1
sat_mc_2,FF146,3,Mit csinál az ovális és a téglalap?,Összeütköznek,Vitatkoznak,Táncolnak,Játszanak,2,1,3,4,mentalization,2,6.4627,1
sat_mc_2,FF146,4,Miért megy a háromszög a sarokba?,Mert örül,Aludni,Mert oda jobban oda illik.,Mert meg van rémülve,4,3,1,2,mentalization,4,8.4237,1
sat_mc_2,FF146,5,Miért megy el a téglalap?,Mert dühös,Mert keres valamit,Mert boldog,"Azért, hogy csak ketten maradjanak itt",1,4,3,2,mentalization,1,5.5231,1
sat_mc_2,FF146,6,Miért megy oda az ovális a háromszöghöz?,Hogy leszidja,Hogy veszekedjenek,Hogy megnyugtassa,Hogy közel legyenek egymáshoz,3,4,2,1,mentalization,3,5.6927,1
sat_mc_2,FF146,9,Miért van a téglalap a háromszög és az ovális között?,Hogy elzárja a háromszöget az oválistól,Hogy ugyanakkora távolságra legyenek egymástól.,Hogy az ovális tudjon játszani,Mert a háromszög fél az oválistól,1,2,3,4,mentalization,1,10.7994,1
sat_mc_2,FF146,13,Mit csinál a háromszög?,A nagy téglalapon kívülre megy.,Táncol,Vitatkozik,Menekül,4,1,2,3,mentalization,4,3.0117,1
sat_mc_2,KOR176,3,Mit csinál az ovális és a téglalap?,Összeütköznek,Vitatkoznak,Táncolnak,Játszanak,2,1,3,4,mentalization,2,4.409,1
sat_mc_2,KOR176,4,Miért megy a háromszög a sarokba?,Mert örül,Aludni,Mert oda jobban oda illik.,Mert meg van rémülve,4,3,1,2,mentalization,4,3.278,1
sat_mc_2,KOR176,5,Miért megy el a téglalap?,Mert dühös,Mert keres valamit,Mert boldog,"Azért, hogy csak ketten maradjanak itt",1,4,3,2,mentalization,1,4.91,1
sat_mc_2,KOR176,6,Miért megy oda az ovális a háromszöghöz?,Hogy leszidja,Hogy veszekedjenek,Hogy megnyugtassa,Hogy közel legyenek egymáshoz,3,4,2,1,mentalization,3,2.656,1
sat_mc_2,KOR176,9,Miért van a téglalap a háromszög és az ovális között?,Hogy elzárja a háromszöget az oválistól,Hogy ugyanakkora távolságra legyenek egymástól.,Hogy az ovális tudjon játszani,Mert a háromszög fél az oválistól,1,2,3,4,mentalization,1,20.732,1
sat_mc_2,KOR176,13,Mit csinál a háromszög?,A nagy téglalapon kívülre megy.,Táncol,Vitatkozik,Menekül,4,1,2,3,movement,2,8.246,0
sat_mc_2,KOR184,3,Mit csinál az ovális és a téglalap?,Összeütköznek,Vitatkoznak,Táncolnak,Játszanak,2,1,3,4,mentalization,2,3.844,1
sat_mc_2,KOR184,4,Miért megy a háromszög a sarokba?,Mert örül,Aludni,Mert oda jobban oda illik.,Mert meg van rémülve,4,3,1,2,mentalization,4,3.348,1
sat_mc_2,KOR184,5,Miért megy el a téglalap?,Mert dühös,Mert keres valamit,Mert boldog,"Azért, hogy csak ketten maradjanak itt",1,4,3,2,mentalization,1,3.3722,1
sat_mc_2,KOR184,6,Miért megy oda az ovális a háromszöghöz?,Hogy leszidja,Hogy veszekedjenek,Hogy megnyugtassa,Hogy közel legyenek egymáshoz,3,4,2,1,mentalization,3,2.9746,1
sat_mc_2,KOR184,9,Miért van a téglalap a háromszög és az ovális között?,Hogy elzárja a háromszöget az oválistól,Hogy ugyanakkora távolságra legyenek egymástól.,Hogy az ovális tudjon játszani,Mert a háromszög fél az oválistól,1,2,3,4,mentalization,1,17.8665,1
sat_mc_2,KOR184,13,Mit csinál a háromszög?,A nagy téglalapon kívülre megy.,Táncol,Vitatkozik,Menekül,4,1,2,3,mentalization,4,2.9822,1
sat_mc_2,KOR173,3,Mit csinál az ovális és a téglalap?,Összeütköznek,Vitatkoznak,Táncolnak,Játszanak,2,1,3,4,mentalization,2,4.929,1
sat_mc_2,KOR173,4,Miért megy a háromszög a sarokba?,Mert örül,Aludni,Mert oda jobban oda illik.,Mert meg van rémülve,4,3,1,2,context,2,15.144,0
sat_mc_2,KOR173,5,Miért megy el a téglalap?,Mert dühös,Mert keres valamit,Mert boldog,"Azért, hogy csak ketten maradjanak itt",1,4,3,2,context,2,6.635,0
sat_mc_2,KOR173,6,Miért megy oda az ovális a háromszöghöz?,Hogy leszidja,Hogy veszekedjenek,Hogy megnyugtassa,Hogy közel legyenek egymáshoz,3,4,2,1,mentalization,3,13.28,1
sat_mc_2,KOR173,9,Miért van a téglalap a háromszög és az ovális között?,Hogy elzárja a háromszöget az oválistól,Hogy ugyanakkora távolságra legyenek egymástól.,Hogy az ovális tudjon játszani,Mert a háromszög fél az oválistól,1,2,3,4,mentalization,1,10.476,1
sat_mc_2,KOR173,13,Mit csinál a háromszög?,A nagy téglalapon kívülre megy.,Táncol,Vitatkozik,Menekül,4,1,2,3,physical,1,3.638,0
sat_mc_2,BL196,3,Mit csinál az ovális és a téglalap?,Összeütköznek,Vitatkoznak,Táncolnak,Játszanak,2,1,3,4,mentalization,2,1.9971,1
sat_mc_2,BL196,4,Miért megy a háromszög a sarokba?,Mert örül,Aludni,Mert oda jobban oda illik.,Mert meg van rémülve,4,3,1,2,mentalization,4,6.8246,1
sat_mc_2,BL196,5,Miért megy el a téglalap?,Mert dühös,Mert keres valamit,Mert boldog,"Azért, hogy csak ketten maradjanak itt",1,4,3,2,mentalization,1,9.5117,1
sat_mc_2,BL196,6,Miért megy oda az ovális a háromszöghöz?,Hogy leszidja,Hogy veszekedjenek,Hogy megnyugtassa,Hogy közel legyenek egymáshoz,3,4,2,1,mentalization,3,2.8073,1
sat_mc_2,BL196,9,Miért van a téglalap a háromszög és az ovális között?,Hogy elzárja a háromszöget az oválistól,Hogy ugyanakkora távolságra legyenek egymástól.,Hogy az ovális tudjon játszani,Mert a háromszög fél az oválistól,1,2,3,4,mentalization,1,10.6129,1
sat_mc_2,BL196,13,Mit csinál a háromszög?,A nagy téglalapon kívülre megy.,Táncol,Vitatkozik,Menekül,4,1,2,3,context,3,4.1313,0
sat_mc_2,KOR132,3,Mit csinál az ovális és a téglalap?,Összeütköznek,Vitatkoznak,Táncolnak,Játszanak,2,1,3,4,physical,1,7.0129,0
sat_mc_2,KOR132,4,Miért megy a háromszög a sarokba?,Mert örül,Aludni,Mert oda jobban oda illik.,Mert meg van rémülve,4,3,1,2,mentalization,4,10.7005,1
sat_mc_2,KOR132,5,Miért megy el a téglalap?,Mert dühös,Mert keres valamit,Mert boldog,"Azért, hogy csak ketten maradjanak itt",1,4,3,2,mentalization,1,13.5363,1
sat_mc_2,KOR132,6,Miért megy oda az ovális a háromszöghöz?,Hogy leszidja,Hogy veszekedjenek,Hogy megnyugtassa,Hogy közel legyenek egymáshoz,3,4,2,1,mentalization,3,7.4341,1
sat_mc_2,KOR132,9,Miért van a téglalap a háromszög és az ovális között?,Hogy elzárja a háromszöget az oválistól,Hogy ugyanakkora távolságra legyenek egymástól.,Hogy az ovális tudjon játszani,Mert a háromszög fél az oválistól,1,2,3,4,context,4,11.4978,0
sat_mc_2,KOR132,13,Mit csinál a háromszög?,A nagy téglalapon kívülre megy.,Táncol,Vitatkozik,Menekül,4,1,2,3,mentalization,4,5.7411,1
sat_mc_2,KOR134,3,Mit csinál az ovális és a téglalap?,Összeütköznek,Vitatkoznak,Táncolnak,Játszanak,2,1,3,4,mentalization,2,3.9362,1
sat_mc_2,KOR134,4,Miért megy a háromszög a sarokba?,Mert örül,Aludni,Mert oda jobban oda illik.,Mert meg van rémülve,4,3,1,2,mentalization,4,13.208,1
sat_mc_2,KOR134,5,Miért megy el a téglalap?,Mert dühös,Mert keres valamit,Mert boldog,"Azért, hogy csak ketten maradjanak itt",1,4,3,2,mentalization,1,3.0609,1
sat_mc_2,KOR134,6,Miért megy oda az ovális a háromszöghöz?,Hogy leszidja,Hogy veszekedjenek,Hogy megnyugtassa,Hogy közel legyenek egymáshoz,3,4,2,1,context,1,9.2228,0
sat_mc_2,KOR134,9,Miért van a téglalap a háromszög és az ovális között?,Hogy elzárja a háromszöget az oválistól,Hogy ugyanakkora távolságra legyenek egymástól.,Hogy az ovális tudjon játszani,Mert a háromszög fél az oválistól,1,2,3,4,mentalization,1,14.0695,1
sat_mc_2,KOR134,13,Mit csinál a háromszög?,A nagy téglalapon kívülre megy.,Táncol,Vitatkozik,Menekül,4,1,2,3,mentalization,4,9.7814,1
sat_mc_2,KOR160,3,Mit csinál az ovális és a téglalap?,Összeütköznek,Vitatkoznak,Táncolnak,Játszanak,2,1,3,4,mentalization,2,22.12,1
sat_mc_2,KOR160,4,Miért megy a háromszög a sarokba?,Mert örül,Aludni,Mert oda jobban oda illik.,Mert meg van rémülve,4,3,1,2,mentalization,4,6.58,1
sat_mc_2,KOR160,5,Miért megy el a téglalap?,Mert dühös,Mert keres valamit,Mert boldog,"Azért, hogy csak ketten maradjanak itt",1,4,3,2,context,2,39.499,0
sat_mc_2,KOR160,6,Miért megy oda az ovális a háromszöghöz?,Hogy leszidja,Hogy veszekedjenek,Hogy megnyugtassa,Hogy közel legyenek egymáshoz,3,4,2,1,physical,4,11.182,0
sat_mc_2,KOR160,9,Miért van a téglalap a háromszög és az ovális között?,Hogy elzárja a háromszöget az oválistól,Hogy ugyanakkora távolságra legyenek egymástól.,Hogy az ovális tudjon játszani,Mert a háromszög fél az oválistól,1,2,3,4,movement,3,40.091,0
sat_mc_2,KOR160,13,Mit csinál a háromszög?,A nagy téglalapon kívülre megy.,Táncol,Vitatkozik,Menekül,4,1,2,3,physical,1,25.784,0
sat_mc_2,FF003,3,Mit csinál az ovális és a téglalap?,Összeütköznek,Vitatkoznak,Táncolnak,Játszanak,2,1,3,4,mentalization,2,2.929,1
sat_mc_2,FF003,4,Miért megy a háromszög a sarokba?,Mert örül,Aludni,Mert oda jobban oda illik.,Mert meg van rémülve,4,3,1,2,mentalization,4,4.892,1
sat_mc_2,FF003,5,Miért megy el a téglalap?,Mert dühös,Mert keres valamit,Mert boldog,"Azért, hogy csak ketten maradjanak itt",1,4,3,2,mentalization,1,3.677,1
sat_mc_2,FF003,6,Miért megy oda az ovális a háromszöghöz?,Hogy leszidja,Hogy veszekedjenek,Hogy megnyugtassa,Hogy közel legyenek egymáshoz,3,4,2,1,mentalization,3,3.4,1
sat_mc_2,FF003,9,Miért van a téglalap a háromszög és az ovális között?,Hogy elzárja a háromszöget az oválistól,Hogy ugyanakkora távolságra legyenek egymástól.,Hogy az ovális tudjon játszani,Mert a háromszög fél az oválistól,1,2,3,4,mentalization,1,11.968,1
sat_mc_2,FF003,13,Mit csinál a háromszög?,A nagy téglalapon kívülre megy.,Táncol,Vitatkozik,Menekül,4,1,2,3,mentalization,4,3.509,1
sat_mc_2,163,3,Mit csinál az ovális és a téglalap?,Összeütköznek,Vitatkoznak,Táncolnak,Játszanak,2,1,3,4,physical,1,36.6546,0
sat_mc_2,163,4,Miért megy a háromszög a sarokba?,Mert örül,Aludni,Mert oda jobban oda illik.,Mert meg van rémülve,4,3,1,2,mentalization,4,14.6648,1
sat_mc_2,163,5,Miért megy el a téglalap?,Mert dühös,Mert keres valamit,Mert boldog,"Azért, hogy csak ketten maradjanak itt",1,4,3,2,movement,3,24.3091,0
sat_mc_2,163,6,Miért megy oda az ovális a háromszöghöz?,Hogy leszidja,Hogy veszekedjenek,Hogy megnyugtassa,Hogy közel legyenek egymáshoz,3,4,2,1,mentalization,3,8.2721,1
sat_mc_2,163,9,Miért van a téglalap a háromszög és az ovális között?,Hogy elzárja a háromszöget az oválistól,Hogy ugyanakkora távolságra legyenek egymástól.,Hogy az ovális tudjon játszani,Mert a háromszög fél az oválistól,1,2,3,4,movement,3,45.7947,0
sat_mc_2,163,13,Mit csinál a háromszög?,A nagy téglalapon kívülre megy.,Táncol,Vitatkozik,Menekül,4,1,2,3,physical,1,10.1566,0
sat_mc_2,FF148,3,Mit csinál az ovális és a téglalap?,Összeütköznek,Vitatkoznak,Táncolnak,Játszanak,2,1,3,4,mentalization,2,4.6993,1
sat_mc_2,FF148,4,Miért megy a háromszög a sarokba?,Mert örül,Aludni,Mert oda jobban oda illik.,Mert meg van rémülve,4,3,1,2,mentalization,4,4.1519,1
sat_mc_2,FF148,5,Miért megy el a téglalap?,Mert dühös,Mert keres valamit,Mert boldog,"Azért, hogy csak ketten maradjanak itt",1,4,3,2,mentalization,1,3.8613,1
sat_mc_2,FF148,6,Miért megy oda az ovális a háromszöghöz?,Hogy leszidja,Hogy veszekedjenek,Hogy megnyugtassa,Hogy közel legyenek egymáshoz,3,4,2,1,mentalization,3,4.6954,1
sat_mc_2,FF148,9,Miért van a téglalap a háromszög és az ovális között?,Hogy elzárja a háromszöget az oválistól,Hogy ugyanakkora távolságra legyenek egymástól.,Hogy az ovális tudjon játszani,Mert a háromszög fél az oválistól,1,2,3,4,mentalization,1,10.7804,1
sat_mc_2,FF148,13,Mit csinál a háromszög?,A nagy téglalapon kívülre megy.,Táncol,Vitatkozik,Menekül,4,1,2,3,mentalization,4,4.3221,1
sat_mc_2,FF136,3,Mit csinál az ovális és a téglalap?,Összeütköznek,Vitatkoznak,Táncolnak,Játszanak,2,1,3,4,mentalization,2,3.6798,1
sat_mc_2,FF136,4,Miért megy a háromszög a sarokba?,Mert örül,Aludni,Mert oda jobban oda illik.,Mert meg van rémülve,4,3,1,2,mentalization,4,7.2359,1
sat_mc_2,FF136,5,Miért megy el a téglalap?,Mert dühös,Mert keres valamit,Mert boldog,"Azért, hogy csak ketten maradjanak itt",1,4,3,2,mentalization,1,4.0583,1
sat_mc_2,FF136,6,Miért megy oda az ovális a háromszöghöz?,Hogy leszidja,Hogy veszekedjenek,Hogy megnyugtassa,Hogy közel legyenek egymáshoz,3,4,2,1,mentalization,3,2.0245,1
sat_mc_2,FF136,9,Miért van a téglalap a háromszög és az ovális között?,Hogy elzárja a háromszöget az oválistól,Hogy ugyanakkora távolságra legyenek egymástól.,Hogy az ovális tudjon játszani,Mert a háromszög fél az oválistól,1,2,3,4,context,4,12.5848,0
sat_mc_2,FF136,13,Mit csinál a háromszög?,A nagy téglalapon kívülre megy.,Táncol,Vitatkozik,Menekül,4,1,2,3,mentalization,4,4.5806,1
sat_mc_2,FF129,3,Mit csinál az ovális és a téglalap?,Összeütköznek,Vitatkoznak,Táncolnak,Játszanak,2,1,3,4,mentalization,2,2.3669,1
sat_mc_2,FF129,4,Miért megy a háromszög a sarokba?,Mert örül,Aludni,Mert oda jobban oda illik.,Mert meg van rémülve,4,3,1,2,mentalization,4,3.4686,1
sat_mc_2,FF129,5,Miért megy el a téglalap?,Mert dühös,Mert keres valamit,Mert boldog,"Azért, hogy csak ketten maradjanak itt",1,4,3,2,mentalization,1,3.7638,1
sat_mc_2,FF129,6,Miért megy oda az ovális a háromszöghöz?,Hogy leszidja,Hogy veszekedjenek,Hogy megnyugtassa,Hogy közel legyenek egymáshoz,3,4,2,1,movement,2,2.4638,0
sat_mc_2,FF129,9,Miért van a téglalap a háromszög és az ovális között?,Hogy elzárja a háromszöget az oválistól,Hogy ugyanakkora távolságra legyenek egymástól.,Hogy az ovális tudjon játszani,Mert a háromszög fél az oválistól,1,2,3,4,mentalization,1,5.3755,1
sat_mc_2,FF129,13,Mit csinál a háromszög?,A nagy téglalapon kívülre megy.,Táncol,Vitatkozik,Menekül,4,1,2,3,mentalization,4,3.1547,1
sat_mc_2,KOR174,3,Mit csinál az ovális és a téglalap?,Összeütköznek,Vitatkoznak,Táncolnak,Játszanak,2,1,3,4,movement,3,6.174,0
sat_mc_2,KOR174,4,Miért megy a háromszög a sarokba?,Mert örül,Aludni,Mert oda jobban oda illik.,Mert meg van rémülve,4,3,1,2,context,2,9.226,0
sat_mc_2,KOR174,5,Miért megy el a téglalap?,Mert dühös,Mert keres valamit,Mert boldog,"Azért, hogy csak ketten maradjanak itt",1,4,3,2,context,2,11.694,0
sat_mc_2,KOR174,6,Miért megy oda az ovális a háromszöghöz?,Hogy leszidja,Hogy veszekedjenek,Hogy megnyugtassa,Hogy közel legyenek egymáshoz,3,4,2,1,physical,4,3.559,0
sat_mc_2,KOR174,9,Miért van a téglalap a háromszög és az ovális között?,Hogy elzárja a háromszöget az oválistól,Hogy ugyanakkora távolságra legyenek egymástól.,Hogy az ovális tudjon játszani,Mert a háromszög fél az oválistól,1,2,3,4,movement,3,12.943,0
sat_mc_2,KOR174,13,Mit csinál a háromszög?,A nagy téglalapon kívülre megy.,Táncol,Vitatkozik,Menekül,4,1,2,3,physical,1,6.426,0
sat_mc_2,BL195,3,Mit csinál az ovális és a téglalap?,Összeütköznek,Vitatkoznak,Táncolnak,Játszanak,2,1,3,4,mentalization,2,6.6625,1
sat_mc_2,BL195,4,Miért megy a háromszög a sarokba?,Mert örül,Aludni,Mert oda jobban oda illik.,Mert meg van rémülve,4,3,1,2,mentalization,4,3.8652,1
sat_mc_2,BL195,5,Miért megy el a téglalap?,Mert dühös,Mert keres valamit,Mert boldog,"Azért, hogy csak ketten maradjanak itt",1,4,3,2,mentalization,1,3.6712,1
sat_mc_2,BL195,6,Miért megy oda az ovális a háromszöghöz?,Hogy leszidja,Hogy veszekedjenek,Hogy megnyugtassa,Hogy közel legyenek egymáshoz,3,4,2,1,context,1,4.6258,0
sat_mc_2,BL195,9,Miért van a téglalap a háromszög és az ovális között?,Hogy elzárja a háromszöget az oválistól,Hogy ugyanakkora távolságra legyenek egymástól.,Hogy az ovális tudjon játszani,Mert a háromszög fél az oválistól,1,2,3,4,mentalization,1,4.866,1
sat_mc_2,BL195,13,Mit csinál a háromszög?,A nagy téglalapon kívülre megy.,Táncol,Vitatkozik,Menekül,4,1,2,3,mentalization,4,3.9203,1
sat_mc_2,BL164,3,Mit csinál az ovális és a téglalap?,Összeütköznek,Vitatkoznak,Táncolnak,Játszanak,2,1,3,4,context,4,12.712,0
sat_mc_2,BL164,4,Miért megy a háromszög a sarokba?,Mert örül,Aludni,Mert oda jobban oda illik.,Mert meg van rémülve,4,3,1,2,mentalization,4,3.6266,1
sat_mc_2,BL164,5,Miért megy el a téglalap?,Mert dühös,Mert keres valamit,Mert boldog,"Azért, hogy csak ketten maradjanak itt",1,4,3,2,mentalization,1,8.946,1
sat_mc_2,BL164,6,Miért megy oda az ovális a háromszöghöz?,Hogy leszidja,Hogy veszekedjenek,Hogy megnyugtassa,Hogy közel legyenek egymáshoz,3,4,2,1,mentalization,3,3.7676,1
sat_mc_2,BL164,9,Miért van a téglalap a háromszög és az ovális között?,Hogy elzárja a háromszöget az oválistól,Hogy ugyanakkora távolságra legyenek egymástól.,Hogy az ovális tudjon játszani,Mert a háromszög fél az oválistól,1,2,3,4,mentalization,1,16.8925,1
sat_mc_2,BL164,13,Mit csinál a háromszög?,A nagy téglalapon kívülre megy.,Táncol,Vitatkozik,Menekül,4,1,2,3,mentalization,4,5.1452,1
sat_mc_2,KOR150,3,Mit csinál az ovális és a téglalap?,Összeütköznek,Vitatkoznak,Táncolnak,Játszanak,2,1,3,4,physical,1,6.281,0
sat_mc_2,KOR150,4,Miért megy a háromszög a sarokba?,Mert örül,Aludni,Mert oda jobban oda illik.,Mert meg van rémülve,4,3,1,2,mentalization,4,10.7022,1
sat_mc_2,KOR150,5,Miért megy el a téglalap?,Mert dühös,Mert keres valamit,Mert boldog,"Azért, hogy csak ketten maradjanak itt",1,4,3,2,physical,4,4.7286,0
sat_mc_2,KOR150,6,Miért megy oda az ovális a háromszöghöz?,Hogy leszidja,Hogy veszekedjenek,Hogy megnyugtassa,Hogy közel legyenek egymáshoz,3,4,2,1,mentalization,3,5.7177,1
sat_mc_2,KOR150,9,Miért van a téglalap a háromszög és az ovális között?,Hogy elzárja a háromszöget az oválistól,Hogy ugyanakkora távolságra legyenek egymástól.,Hogy az ovális tudjon játszani,Mert a háromszög fél az oválistól,1,2,3,4,mentalization,1,13.614,1
sat_mc_2,KOR150,13,Mit csinál a háromszög?,A nagy téglalapon kívülre megy.,Táncol,Vitatkozik,Menekül,4,1,2,3,mentalization,4,2.6005,1
sat_mc_2,KOR154,3,Mit csinál az ovális és a téglalap?,Összeütköznek,Vitatkoznak,Táncolnak,Játszanak,2,1,3,4,mentalization,2,3.1,1
sat_mc_2,KOR154,4,Miért megy a háromszög a sarokba?,Mert örül,Aludni,Mert oda jobban oda illik.,Mert meg van rémülve,4,3,1,2,mentalization,4,5.664,1
sat_mc_2,KOR154,5,Miért megy el a téglalap?,Mert dühös,Mert keres valamit,Mert boldog,"Azért, hogy csak ketten maradjanak itt",1,4,3,2,mentalization,1,3.003,1
sat_mc_2,KOR154,6,Miért megy oda az ovális a háromszöghöz?,Hogy leszidja,Hogy veszekedjenek,Hogy megnyugtassa,Hogy közel legyenek egymáshoz,3,4,2,1,mentalization,3,4.187,1
sat_mc_2,KOR154,9,Miért van a téglalap a háromszög és az ovális között?,Hogy elzárja a háromszöget az oválistól,Hogy ugyanakkora távolságra legyenek egymástól.,Hogy az ovális tudjon játszani,Mert a háromszög fél az oválistól,1,2,3,4,mentalization,1,8.9,1
sat_mc_2,KOR154,13,Mit csinál a háromszög?,A nagy téglalapon kívülre megy.,Táncol,Vitatkozik,Menekül,4,1,2,3,mentalization,4,8.953,1
sat_mc_2,KOR144,3,Mit csinál az ovális és a téglalap?,Összeütköznek,Vitatkoznak,Táncolnak,Játszanak,2,1,3,4,physical,1,6.9664,0
sat_mc_2,KOR144,4,Miért megy a háromszög a sarokba?,Mert örül,Aludni,Mert oda jobban oda illik.,Mert meg van rémülve,4,3,1,2,mentalization,4,5.2623,1
sat_mc_2,KOR144,5,Miért megy el a téglalap?,Mert dühös,Mert keres valamit,Mert boldog,"Azért, hogy csak ketten maradjanak itt",1,4,3,2,mentalization,1,6.5076,1
sat_mc_2,KOR144,6,Miért megy oda az ovális a háromszöghöz?,Hogy leszidja,Hogy veszekedjenek,Hogy megnyugtassa,Hogy közel legyenek egymáshoz,3,4,2,1,mentalization,3,4.2335,1
sat_mc_2,KOR144,9,Miért van a téglalap a háromszög és az ovális között?,Hogy elzárja a háromszöget az oválistól,Hogy ugyanakkora távolságra legyenek egymástól.,Hogy az ovális tudjon játszani,Mert a háromszög fél az oválistól,1,2,3,4,physical,2,9.1328,0
sat_mc_2,KOR144,13,Mit csinál a háromszög?,A nagy téglalapon kívülre megy.,Táncol,Vitatkozik,Menekül,4,1,2,3,physical,1,3.0968,0
sat_mc_2,KOR156,3,Mit csinál az ovális és a téglalap?,Összeütköznek,Vitatkoznak,Táncolnak,Játszanak,2,1,3,4,movement,3,6.0778,0
sat_mc_2,KOR156,4,Miért megy a háromszög a sarokba?,Mert örül,Aludni,Mert oda jobban oda illik.,Mert meg van rémülve,4,3,1,2,context,2,5.1158,0
sat_mc_2,KOR156,5,Miért megy el a téglalap?,Mert dühös,Mert keres valamit,Mert boldog,"Azért, hogy csak ketten maradjanak itt",1,4,3,2,context,2,4.8406,0
sat_mc_2,KOR156,6,Miért megy oda az ovális a háromszöghöz?,Hogy leszidja,Hogy veszekedjenek,Hogy megnyugtassa,Hogy közel legyenek egymáshoz,3,4,2,1,mentalization,3,5.4545,1
sat_mc_2,KOR156,9,Miért van a téglalap a háromszög és az ovális között?,Hogy elzárja a háromszöget az oválistól,Hogy ugyanakkora távolságra legyenek egymástól.,Hogy az ovális tudjon játszani,Mert a háromszög fél az oválistól,1,2,3,4,physical,2,9.2898,0
sat_mc_2,KOR156,13,Mit csinál a háromszög?,A nagy téglalapon kívülre megy.,Táncol,Vitatkozik,Menekül,4,1,2,3,movement,2,5.9909,0
sat_mc_2,FF005,3,Mit csinál az ovális és a téglalap?,Összeütköznek,Vitatkoznak,Táncolnak,Játszanak,2,1,3,4,mentalization,2,7.8503,1
sat_mc_2,FF005,4,Miért megy a háromszög a sarokba?,Mert örül,Aludni,Mert oda jobban oda illik.,Mert meg van rémülve,4,3,1,2,mentalization,4,3.0024,1
sat_mc_2,FF005,5,Miért megy el a téglalap?,Mert dühös,Mert keres valamit,Mert boldog,"Azért, hogy csak ketten maradjanak itt",1,4,3,2,mentalization,1,5.3227,1
sat_mc_2,FF005,6,Miért megy oda az ovális a háromszöghöz?,Hogy leszidja,Hogy veszekedjenek,Hogy megnyugtassa,Hogy közel legyenek egymáshoz,3,4,2,1,mentalization,3,2.9222,1
sat_mc_2,FF005,9,Miért van a téglalap a háromszög és az ovális között?,Hogy elzárja a háromszöget az oválistól,Hogy ugyanakkora távolságra legyenek egymástól.,Hogy az ovális tudjon játszani,Mert a háromszög fél az oválistól,1,2,3,4,mentalization,1,6.4378,1
sat_mc_2,FF005,13,Mit csinál a háromszög?,A nagy téglalapon kívülre megy.,Táncol,Vitatkozik,Menekül,4,1,2,3,mentalization,4,5.237,1
sat_mc_2,FF020,3,Mit csinál az ovális és a téglalap?,Összeütköznek,Vitatkoznak,Táncolnak,Játszanak,2,1,3,4,mentalization,2,7.254,1
sat_mc_2,FF020,4,Miért megy a háromszög a sarokba?,Mert örül,Aludni,Mert oda jobban oda illik.,Mert meg van rémülve,4,3,1,2,mentalization,4,6.074,1
sat_mc_2,FF020,5,Miért megy el a téglalap?,Mert dühös,Mert keres valamit,Mert boldog,"Azért, hogy csak ketten maradjanak itt",1,4,3,2,mentalization,1,5.524,1
sat_mc_2,FF020,6,Miért megy oda az ovális a háromszöghöz?,Hogy leszidja,Hogy veszekedjenek,Hogy megnyugtassa,Hogy közel legyenek egymáshoz,3,4,2,1,mentalization,3,4.317,1
sat_mc_2,FF020,9,Miért van a téglalap a háromszög és az ovális között?,Hogy elzárja a háromszöget az oválistól,Hogy ugyanakkora távolságra legyenek egymástól.,Hogy az ovális tudjon játszani,Mert a háromszög fél az oválistól,1,2,3,4,mentalization,1,11.812,1
sat_mc_2,FF020,13,Mit csinál a háromszög?,A nagy téglalapon kívülre megy.,Táncol,Vitatkozik,Menekül,4,1,2,3,mentalization,4,16.4,1
sat_mc_2,FF016,3,Mit csinál az ovális és a téglalap?,Összeütköznek,Vitatkoznak,Táncolnak,Játszanak,2,1,3,4,context,4,3.7403,0
sat_mc_2,FF016,4,Miért megy a háromszög a sarokba?,Mert örül,Aludni,Mert oda jobban oda illik.,Mert meg van rémülve,4,3,1,2,mentalization,4,5.7313,1
sat_mc_2,FF016,5,Miért megy el a téglalap?,Mert dühös,Mert keres valamit,Mert boldog,"Azért, hogy csak ketten maradjanak itt",1,4,3,2,mentalization,1,6.48,1
sat_mc_2,FF016,6,Miért megy oda az ovális a háromszöghöz?,Hogy leszidja,Hogy veszekedjenek,Hogy megnyugtassa,Hogy közel legyenek egymáshoz,3,4,2,1,context,1,8.1353,0
sat_mc_2,FF016,9,Miért van a téglalap a háromszög és az ovális között?,Hogy elzárja a háromszöget az oválistól,Hogy ugyanakkora távolságra legyenek egymástól.,Hogy az ovális tudjon játszani,Mert a háromszög fél az oválistól,1,2,3,4,movement,3,0.2336,0
sat_mc_2,FF016,13,Mit csinál a háromszög?,A nagy téglalapon kívülre megy.,Táncol,Vitatkozik,Menekül,4,1,2,3,context,3,1.9695,0
sat_mc_2,BL153,3,Mit csinál az ovális és a téglalap?,Összeütköznek,Vitatkoznak,Táncolnak,Játszanak,2,1,3,4,physical,1,4.9218,0
sat_mc_2,BL153,4,Miért megy a háromszög a sarokba?,Mert örül,Aludni,Mert oda jobban oda illik.,Mert meg van rémülve,4,3,1,2,mentalization,4,14.9008,1
sat_mc_2,BL153,5,Miért megy el a téglalap?,Mert dühös,Mert keres valamit,Mert boldog,"Azért, hogy csak ketten maradjanak itt",1,4,3,2,physical,4,5.5096,0
sat_mc_2,BL153,6,Miért megy oda az ovális a háromszöghöz?,Hogy leszidja,Hogy veszekedjenek,Hogy megnyugtassa,Hogy közel legyenek egymáshoz,3,4,2,1,mentalization,3,4.9154,1
sat_mc_2,BL153,9,Miért van a téglalap a háromszög és az ovális között?,Hogy elzárja a háromszöget az oválistól,Hogy ugyanakkora távolságra legyenek egymástól.,Hogy az ovális tudjon játszani,Mert a háromszög fél az oválistól,1,2,3,4,mentalization,1,13.3321,1
sat_mc_2,BL153,13,Mit csinál a háromszög?,A nagy téglalapon kívülre megy.,Táncol,Vitatkozik,Menekül,4,1,2,3,physical,1,6.1512,0
sat_mc_2,UF0L8V,3,Mit csinál az ovális és a téglalap?,Összeütköznek,Vitatkoznak,Táncolnak,Játszanak,2,1,3,4,mentalization,2,9.1534,1
sat_mc_2,UF0L8V,4,Miért megy a háromszög a sarokba?,Mert örül,Aludni,Mert oda jobban oda illik.,Mert meg van rémülve,4,3,1,2,mentalization,4,2.8518,1
sat_mc_2,UF0L8V,5,Miért megy el a téglalap?,Mert dühös,Mert keres valamit,Mert boldog,"Azért, hogy csak ketten maradjanak itt",1,4,3,2,mentalization,1,5.2632,1
sat_mc_2,UF0L8V,6,Miért megy oda az ovális a háromszöghöz?,Hogy leszidja,Hogy veszekedjenek,Hogy megnyugtassa,Hogy közel legyenek egymáshoz,3,4,2,1,mentalization,3,3.3127,1
sat_mc_2,UF0L8V,9,Miért van a téglalap a háromszög és az ovális között?,Hogy elzárja a háromszöget az oválistól,Hogy ugyanakkora távolságra legyenek egymástól.,Hogy az ovális tudjon játszani,Mert a háromszög fél az oválistól,1,2,3,4,mentalization,1,13.5328,1
sat_mc_2,UF0L8V,13,Mit csinál a háromszög?,A nagy téglalapon kívülre megy.,Táncol,Vitatkozik,Menekül,4,1,2,3,physical,1,15.8256,0
sat_mc_2,FF097,3,Mit csinál az ovális és a téglalap?,Összeütköznek,Vitatkoznak,Táncolnak,Játszanak,2,1,3,4,mentalization,2,4.9798,1
sat_mc_2,FF097,4,Miért megy a háromszög a sarokba?,Mert örül,Aludni,Mert oda jobban oda illik.,Mert meg van rémülve,4,3,1,2,mentalization,4,6.7043,1
sat_mc_2,FF097,5,Miért megy el a téglalap?,Mert dühös,Mert keres valamit,Mert boldog,"Azért, hogy csak ketten maradjanak itt",1,4,3,2,mentalization,1,5.2995,1
sat_mc_2,FF097,6,Miért megy oda az ovális a háromszöghöz?,Hogy leszidja,Hogy veszekedjenek,Hogy megnyugtassa,Hogy közel legyenek egymáshoz,3,4,2,1,mentalization,3,2.8243,1
sat_mc_2,FF097,9,Miért van a téglalap a háromszög és az ovális között?,Hogy elzárja a háromszöget az oválistól,Hogy ugyanakkora távolságra legyenek egymástól.,Hogy az ovális tudjon játszani,Mert a háromszög fél az oválistól,1,2,3,4,mentalization,1,18.0852,1
sat_mc_2,FF097,13,Mit csinál a háromszög?,A nagy téglalapon kívülre megy.,Táncol,Vitatkozik,Menekül,4,1,2,3,mentalization,4,5.4793,1
sat_mc_2,FF127,3,Mit csinál az ovális és a téglalap?,Összeütköznek,Vitatkoznak,Táncolnak,Játszanak,2,1,3,4,mentalization,2,5.8098,1
sat_mc_2,FF127,4,Miért megy a háromszög a sarokba?,Mert örül,Aludni,Mert oda jobban oda illik.,Mert meg van rémülve,4,3,1,2,mentalization,4,7.8505,1
sat_mc_2,FF127,5,Miért megy el a téglalap?,Mert dühös,Mert keres valamit,Mert boldog,"Azért, hogy csak ketten maradjanak itt",1,4,3,2,mentalization,1,5.0887,1
sat_mc_2,FF127,6,Miért megy oda az ovális a háromszöghöz?,Hogy leszidja,Hogy veszekedjenek,Hogy megnyugtassa,Hogy közel legyenek egymáshoz,3,4,2,1,movement,2,4.5948,0
sat_mc_2,FF127,9,Miért van a téglalap a háromszög és az ovális között?,Hogy elzárja a háromszöget az oválistól,Hogy ugyanakkora távolságra legyenek egymástól.,Hogy az ovális tudjon játszani,Mert a háromszög fél az oválistól,1,2,3,4,context,4,14.1783,0
sat_mc_2,FF127,13,Mit csinál a háromszög?,A nagy téglalapon kívülre megy.,Táncol,Vitatkozik,Menekül,4,1,2,3,mentalization,4,5.4185,1
sat_mc_2,FF999,3,Mit csinál az ovális és a téglalap?,Összeütköznek,Vitatkoznak,Táncolnak,Játszanak,2,1,3,4,mentalization,2,10.476,1
sat_mc_2,FF999,4,Miért megy a háromszög a sarokba?,Mert örül,Aludni,Mert oda jobban oda illik.,Mert meg van rémülve,4,3,1,2,mentalization,4,4.095,1
sat_mc_2,FF999,5,Miért megy el a téglalap?,Mert dühös,Mert keres valamit,Mert boldog,"Azért, hogy csak ketten maradjanak itt",1,4,3,2,mentalization,1,4.051,1
sat_mc_2,FF999,6,Miért megy oda az ovális a háromszöghöz?,Hogy leszidja,Hogy veszekedjenek,Hogy megnyugtassa,Hogy közel legyenek egymáshoz,3,4,2,1,mentalization,3,3.914,1
sat_mc_2,FF999,9,Miért van a téglalap a háromszög és az ovális között?,Hogy elzárja a háromszöget az oválistól,Hogy ugyanakkora távolságra legyenek egymástól.,Hogy az ovális tudjon játszani,Mert a háromszög fél az oválistól,1,2,3,4,mentalization,1,8.38,1
sat_mc_2,FF999,13,Mit csinál a háromszög?,A nagy téglalapon kívülre megy.,Táncol,Vitatkozik,Menekül,4,1,2,3,context,3,12.377,0
sat_mc_2,BL167,3,Mit csinál az ovális és a téglalap?,Összeütköznek,Vitatkoznak,Táncolnak,Játszanak,2,1,3,4,mentalization,2,2.7759,1
sat_mc_2,BL167,4,Miért megy a háromszög a sarokba?,Mert örül,Aludni,Mert oda jobban oda illik.,Mert meg van rémülve,4,3,1,2,mentalization,4,3.8602,1
sat_mc_2,BL167,5,Miért megy el a téglalap?,Mert dühös,Mert keres valamit,Mert boldog,"Azért, hogy csak ketten maradjanak itt",1,4,3,2,mentalization,1,4.9681,1
sat_mc_2,BL167,6,Miért megy oda az ovális a háromszöghöz?,Hogy leszidja,Hogy veszekedjenek,Hogy megnyugtassa,Hogy közel legyenek egymáshoz,3,4,2,1,mentalization,3,3.5668,1
sat_mc_2,BL167,9,Miért van a téglalap a háromszög és az ovális között?,Hogy elzárja a háromszöget az oválistól,Hogy ugyanakkora távolságra legyenek egymástól.,Hogy az ovális tudjon játszani,Mert a háromszög fél az oválistól,1,2,3,4,mentalization,1,7.2875,1
sat_mc_2,BL167,13,Mit csinál a háromszög?,A nagy téglalapon kívülre megy.,Táncol,Vitatkozik,Menekül,4,1,2,3,mentalization,4,3.2925,1
sat_mc_2,BL165,3,Mit csinál az ovális és a téglalap?,Összeütköznek,Vitatkoznak,Táncolnak,Játszanak,2,1,3,4,mentalization,2,3.2171,1
sat_mc_2,BL165,4,Miért megy a háromszög a sarokba?,Mert örül,Aludni,Mert oda jobban oda illik.,Mert meg van rémülve,4,3,1,2,mentalization,4,3.1056,1
sat_mc_2,BL165,5,Miért megy el a téglalap?,Mert dühös,Mert keres valamit,Mert boldog,"Azért, hogy csak ketten maradjanak itt",1,4,3,2,mentalization,1,3.636,1
sat_mc_2,BL165,6,Miért megy oda az ovális a háromszöghöz?,Hogy leszidja,Hogy veszekedjenek,Hogy megnyugtassa,Hogy közel legyenek egymáshoz,3,4,2,1,mentalization,3,3.2335,1
sat_mc_2,BL165,9,Miért van a téglalap a háromszög és az ovális között?,Hogy elzárja a háromszöget az oválistól,Hogy ugyanakkora távolságra legyenek egymástól.,Hogy az ovális tudjon játszani,Mert a háromszög fél az oválistól,1,2,3,4,mentalization,1,7.4505,1
sat_mc_2,BL165,13,Mit csinál a háromszög?,A nagy téglalapon kívülre megy.,Táncol,Vitatkozik,Menekül,4,1,2,3,movement,2,8.4802,0
sat_mc_2,KOR172,3,Mit csinál az ovális és a téglalap?,Összeütköznek,Vitatkoznak,Táncolnak,Játszanak,2,1,3,4,context,4,6.1125,0
sat_mc_2,KOR172,4,Miért megy a háromszög a sarokba?,Mert örül,Aludni,Mert oda jobban oda illik.,Mert meg van rémülve,4,3,1,2,mentalization,4,5.9091,1
sat_mc_2,KOR172,5,Miért megy el a téglalap?,Mert dühös,Mert keres valamit,Mert boldog,"Azért, hogy csak ketten maradjanak itt",1,4,3,2,physical,4,10.8169,0
sat_mc_2,KOR172,6,Miért megy oda az ovális a háromszöghöz?,Hogy leszidja,Hogy veszekedjenek,Hogy megnyugtassa,Hogy közel legyenek egymáshoz,3,4,2,1,mentalization,3,3.7348,1
sat_mc_2,KOR172,9,Miért van a téglalap a háromszög és az ovális között?,Hogy elzárja a háromszöget az oválistól,Hogy ugyanakkora távolságra legyenek egymástól.,Hogy az ovális tudjon játszani,Mert a háromszög fél az oválistól,1,2,3,4,mentalization,1,3.4107,1
sat_mc_2,KOR172,13,Mit csinál a háromszög?,A nagy téglalapon kívülre megy.,Táncol,Vitatkozik,Menekül,4,1,2,3,mentalization,4,5.1711,1
sat_mc_2,BL174,3,Mit csinál az ovális és a téglalap?,Összeütköznek,Vitatkoznak,Táncolnak,Játszanak,2,1,3,4,mentalization,2,3.6641,1
sat_mc_2,BL174,4,Miért megy a háromszög a sarokba?,Mert örül,Aludni,Mert oda jobban oda illik.,Mert meg van rémülve,4,3,1,2,mentalization,4,7.1156,1
sat_mc_2,BL174,5,Miért megy el a téglalap?,Mert dühös,Mert keres valamit,Mert boldog,"Azért, hogy csak ketten maradjanak itt",1,4,3,2,mentalization,1,7.493,1
sat_mc_2,BL174,6,Miért megy oda az ovális a háromszöghöz?,Hogy leszidja,Hogy veszekedjenek,Hogy megnyugtassa,Hogy közel legyenek egymáshoz,3,4,2,1,mentalization,3,8.488,1
sat_mc_2,BL174,9,Miért van a téglalap a háromszög és az ovális között?,Hogy elzárja a háromszöget az oválistól,Hogy ugyanakkora távolságra legyenek egymástól.,Hogy az ovális tudjon játszani,Mert a háromszög fél az oválistól,1,2,3,4,mentalization,1,16.5647,1
sat_mc_2,BL174,13,Mit csinál a háromszög?,A nagy téglalapon kívülre megy.,Táncol,Vitatkozik,Menekül,4,1,2,3,mentalization,4,7.3267,1
sat_mc_2,KOR182,3,Mit csinál az ovális és a téglalap?,Összeütköznek,Vitatkoznak,Táncolnak,Játszanak,2,1,3,4,context,4,13.788,0
sat_mc_2,KOR182,4,Miért megy a háromszög a sarokba?,Mert örül,Aludni,Mert oda jobban oda illik.,Mert meg van rémülve,4,3,1,2,movement,1,13.236,0
sat_mc_2,KOR182,5,Miért megy el a téglalap?,Mert dühös,Mert keres valamit,Mert boldog,"Azért, hogy csak ketten maradjanak itt",1,4,3,2,context,2,6.911,0
sat_mc_2,KOR182,6,Miért megy oda az ovális a háromszöghöz?,Hogy leszidja,Hogy veszekedjenek,Hogy megnyugtassa,Hogy közel legyenek egymáshoz,3,4,2,1,physical,4,3.913,0
sat_mc_2,KOR182,9,Miért van a téglalap a háromszög és az ovális között?,Hogy elzárja a háromszöget az oválistól,Hogy ugyanakkora távolságra legyenek egymástól.,Hogy az ovális tudjon játszani,Mert a háromszög fél az oválistól,1,2,3,4,physical,2,8.848,0
sat_mc_2,KOR182,13,Mit csinál a háromszög?,A nagy téglalapon kívülre megy.,Táncol,Vitatkozik,Menekül,4,1,2,3,physical,1,13.857,0
sat_mc_2,BL203,3,Mit csinál az ovális és a téglalap?,Összeütköznek,Vitatkoznak,Táncolnak,Játszanak,2,1,3,4,mentalization,2,5.6048,1
sat_mc_2,BL203,4,Miért megy a háromszög a sarokba?,Mert örül,Aludni,Mert oda jobban oda illik.,Mert meg van rémülve,4,3,1,2,mentalization,4,4.2134,1
sat_mc_2,BL203,5,Miért megy el a téglalap?,Mert dühös,Mert keres valamit,Mert boldog,"Azért, hogy csak ketten maradjanak itt",1,4,3,2,mentalization,1,2.8879,1
sat_mc_2,BL203,6,Miért megy oda az ovális a háromszöghöz?,Hogy leszidja,Hogy veszekedjenek,Hogy megnyugtassa,Hogy közel legyenek egymáshoz,3,4,2,1,mentalization,3,1.9949,1
sat_mc_2,BL203,9,Miért van a téglalap a háromszög és az ovális között?,Hogy elzárja a háromszöget az oválistól,Hogy ugyanakkora távolságra legyenek egymástól.,Hogy az ovális tudjon játszani,Mert a háromszög fél az oválistól,1,2,3,4,mentalization,1,34.3851,1
sat_mc_2,BL203,13,Mit csinál a háromszög?,A nagy téglalapon kívülre megy.,Táncol,Vitatkozik,Menekül,4,1,2,3,mentalization,4,7.5499,1
sat_mc_2,LB168,3,Mit csinál az ovális és a téglalap?,Összeütköznek,Vitatkoznak,Táncolnak,Játszanak,2,1,3,4,mentalization,2,3.0319,1
sat_mc_2,LB168,4,Miért megy a háromszög a sarokba?,Mert örül,Aludni,Mert oda jobban oda illik.,Mert meg van rémülve,4,3,1,2,mentalization,4,5.1382,1
sat_mc_2,LB168,5,Miért megy el a téglalap?,Mert dühös,Mert keres valamit,Mert boldog,"Azért, hogy csak ketten maradjanak itt",1,4,3,2,mentalization,1,5.0426,1
sat_mc_2,LB168,6,Miért megy oda az ovális a háromszöghöz?,Hogy leszidja,Hogy veszekedjenek,Hogy megnyugtassa,Hogy közel legyenek egymáshoz,3,4,2,1,mentalization,3,3.2346,1
sat_mc_2,LB168,9,Miért van a téglalap a háromszög és az ovális között?,Hogy elzárja a háromszöget az oválistól,Hogy ugyanakkora távolságra legyenek egymástól.,Hogy az ovális tudjon játszani,Mert a háromszög fél az oválistól,1,2,3,4,mentalization,1,5.7635,1
sat_mc_2,LB168,13,Mit csinál a háromszög?,A nagy téglalapon kívülre megy.,Táncol,Vitatkozik,Menekül,4,1,2,3,physical,1,5.717,0
sat_mc_2,BL191,3,Mit csinál az ovális és a téglalap?,Összeütköznek,Vitatkoznak,Táncolnak,Játszanak,2,1,3,4,mentalization,2,8.9276,1
sat_mc_2,BL191,4,Miért megy a háromszög a sarokba?,Mert örül,Aludni,Mert oda jobban oda illik.,Mert meg van rémülve,4,3,1,2,mentalization,4,6.4012,1
sat_mc_2,BL191,5,Miért megy el a téglalap?,Mert dühös,Mert keres valamit,Mert boldog,"Azért, hogy csak ketten maradjanak itt",1,4,3,2,mentalization,1,15.3286,1
sat_mc_2,BL191,6,Miért megy oda az ovális a háromszöghöz?,Hogy leszidja,Hogy veszekedjenek,Hogy megnyugtassa,Hogy közel legyenek egymáshoz,3,4,2,1,mentalization,3,4.473,1
sat_mc_2,BL191,9,Miért van a téglalap a háromszög és az ovális között?,Hogy elzárja a háromszöget az oválistól,Hogy ugyanakkora távolságra legyenek egymástól.,Hogy az ovális tudjon játszani,Mert a háromszög fél az oválistól,1,2,3,4,mentalization,1,9.7808,1
sat_mc_2,BL191,13,Mit csinál a háromszög?,A nagy téglalapon kívülre megy.,Táncol,Vitatkozik,Menekül,4,1,2,3,mentalization,4,4.7419,1
sat_mc_2,BL172,3,Mit csinál az ovális és a téglalap?,Összeütköznek,Vitatkoznak,Táncolnak,Játszanak,2,1,3,4,mentalization,2,3.1455,1
sat_mc_2,BL172,4,Miért megy a háromszög a sarokba?,Mert örül,Aludni,Mert oda jobban oda illik.,Mert meg van rémülve,4,3,1,2,mentalization,4,3.3322,1
sat_mc_2,BL172,5,Miért megy el a téglalap?,Mert dühös,Mert keres valamit,Mert boldog,"Azért, hogy csak ketten maradjanak itt",1,4,3,2,context,2,16.9605,0
sat_mc_2,BL172,6,Miért megy oda az ovális a háromszöghöz?,Hogy leszidja,Hogy veszekedjenek,Hogy megnyugtassa,Hogy közel legyenek egymáshoz,3,4,2,1,mentalization,3,3.2747,1
sat_mc_2,BL172,9,Miért van a téglalap a háromszög és az ovális között?,Hogy elzárja a háromszöget az oválistól,Hogy ugyanakkora távolságra legyenek egymástól.,Hogy az ovális tudjon játszani,Mert a háromszög fél az oválistól,1,2,3,4,movement,3,11.6482,0
sat_mc_2,BL172,13,Mit csinál a háromszög?,A nagy téglalapon kívülre megy.,Táncol,Vitatkozik,Menekül,4,1,2,3,physical,1,7.9172,0
sat_mc_2,KOR152,3,Mit csinál az ovális és a téglalap?,Összeütköznek,Vitatkoznak,Táncolnak,Játszanak,2,1,3,4,physical,1,5.5611,0
sat_mc_2,KOR152,4,Miért megy a háromszög a sarokba?,Mert örül,Aludni,Mert oda jobban oda illik.,Mert meg van rémülve,4,3,1,2,context,2,12.2784,0
sat_mc_2,KOR152,5,Miért megy el a téglalap?,Mert dühös,Mert keres valamit,Mert boldog,"Azért, hogy csak ketten maradjanak itt",1,4,3,2,context,2,10.5045,0
sat_mc_2,KOR152,6,Miért megy oda az ovális a háromszöghöz?,Hogy leszidja,Hogy veszekedjenek,Hogy megnyugtassa,Hogy közel legyenek egymáshoz,3,4,2,1,mentalization,3,7.5112,1
sat_mc_2,KOR152,9,Miért van a téglalap a háromszög és az ovális között?,Hogy elzárja a háromszöget az oválistól,Hogy ugyanakkora távolságra legyenek egymástól.,Hogy az ovális tudjon játszani,Mert a háromszög fél az oválistól,1,2,3,4,physical,2,36.1923,0
sat_mc_2,KOR152,13,Mit csinál a háromszög?,A nagy téglalapon kívülre megy.,Táncol,Vitatkozik,Menekül,4,1,2,3,physical,1,5.2184,0
sat_mc_2,KOR130,3,Mit csinál az ovális és a téglalap?,Összeütköznek,Vitatkoznak,Táncolnak,Játszanak,2,1,3,4,mentalization,2,18.9789,1
sat_mc_2,KOR130,4,Miért megy a háromszög a sarokba?,Mert örül,Aludni,Mert oda jobban oda illik.,Mert meg van rémülve,4,3,1,2,mentalization,4,5.6113,1
sat_mc_2,KOR130,5,Miért megy el a téglalap?,Mert dühös,Mert keres valamit,Mert boldog,"Azért, hogy csak ketten maradjanak itt",1,4,3,2,mentalization,1,7.3486,1
sat_mc_2,KOR130,6,Miért megy oda az ovális a háromszöghöz?,Hogy leszidja,Hogy veszekedjenek,Hogy megnyugtassa,Hogy közel legyenek egymáshoz,3,4,2,1,mentalization,3,3.2981,1
sat_mc_2,KOR130,9,Miért van a téglalap a háromszög és az ovális között?,Hogy elzárja a háromszöget az oválistól,Hogy ugyanakkora távolságra legyenek egymástól.,Hogy az ovális tudjon játszani,Mert a háromszög fél az oválistól,1,2,3,4,mentalization,1,10.3133,1
sat_mc_2,KOR130,13,Mit csinál a háromszög?,A nagy téglalapon kívülre megy.,Táncol,Vitatkozik,Menekül,4,1,2,3,physical,1,18.5779,0
sat_mc_2,KOR153,3,Mit csinál az ovális és a téglalap?,Összeütköznek,Vitatkoznak,Táncolnak,Játszanak,2,1,3,4,context,4,4.3816,0
sat_mc_2,KOR153,4,Miért megy a háromszög a sarokba?,Mert örül,Aludni,Mert oda jobban oda illik.,Mert meg van rémülve,4,3,1,2,mentalization,4,11.96,1
sat_mc_2,KOR153,5,Miért megy el a téglalap?,Mert dühös,Mert keres valamit,Mert boldog,"Azért, hogy csak ketten maradjanak itt",1,4,3,2,mentalization,1,8.9304,1
sat_mc_2,KOR153,6,Miért megy oda az ovális a háromszöghöz?,Hogy leszidja,Hogy veszekedjenek,Hogy megnyugtassa,Hogy közel legyenek egymáshoz,3,4,2,1,mentalization,3,12.6761,1
sat_mc_2,KOR153,9,Miért van a téglalap a háromszög és az ovális között?,Hogy elzárja a háromszöget az oválistól,Hogy ugyanakkora távolságra legyenek egymástól.,Hogy az ovális tudjon játszani,Mert a háromszög fél az oválistól,1,2,3,4,mentalization,1,4.8738,1
sat_mc_2,KOR153,13,Mit csinál a háromszög?,A nagy téglalapon kívülre megy.,Táncol,Vitatkozik,Menekül,4,1,2,3,mentalization,4,3.8658,1
sat_mc_2,KOR157,3,Mit csinál az ovális és a téglalap?,Összeütköznek,Vitatkoznak,Táncolnak,Játszanak,2,1,3,4,movement,3,5.8968,0
sat_mc_2,KOR157,4,Miért megy a háromszög a sarokba?,Mert örül,Aludni,Mert oda jobban oda illik.,Mert meg van rémülve,4,3,1,2,movement,1,8.9056,0
sat_mc_2,KOR157,5,Miért megy el a téglalap?,Mert dühös,Mert keres valamit,Mert boldog,"Azért, hogy csak ketten maradjanak itt",1,4,3,2,context,2,6.7651,0
sat_mc_2,KOR157,6,Miért megy oda az ovális a háromszöghöz?,Hogy leszidja,Hogy veszekedjenek,Hogy megnyugtassa,Hogy közel legyenek egymáshoz,3,4,2,1,physical,4,5.0305,0
sat_mc_2,KOR157,9,Miért van a téglalap a háromszög és az ovális között?,Hogy elzárja a háromszöget az oválistól,Hogy ugyanakkora távolságra legyenek egymástól.,Hogy az ovális tudjon játszani,Mert a háromszög fél az oválistól,1,2,3,4,movement,3,12.7732,0
sat_mc_2,KOR157,13,Mit csinál a háromszög?,A nagy téglalapon kívülre megy.,Táncol,Vitatkozik,Menekül,4,1,2,3,physical,1,7.0199,0
sat_mc_2,FF010,3,Mit csinál az ovális és a téglalap?,Összeütköznek,Vitatkoznak,Táncolnak,Játszanak,2,1,3,4,mentalization,2,3.7359,1
sat_mc_2,FF010,4,Miért megy a háromszög a sarokba?,Mert örül,Aludni,Mert oda jobban oda illik.,Mert meg van rémülve,4,3,1,2,mentalization,4,4.0417,1
sat_mc_2,FF010,5,Miért megy el a téglalap?,Mert dühös,Mert keres valamit,Mert boldog,"Azért, hogy csak ketten maradjanak itt",1,4,3,2,mentalization,1,7.3485,1
sat_mc_2,FF010,6,Miért megy oda az ovális a háromszöghöz?,Hogy leszidja,Hogy veszekedjenek,Hogy megnyugtassa,Hogy közel legyenek egymáshoz,3,4,2,1,physical,4,36.5176,0
sat_mc_2,FF010,9,Miért van a téglalap a háromszög és az ovális között?,Hogy elzárja a háromszöget az oválistól,Hogy ugyanakkora távolságra legyenek egymástól.,Hogy az ovális tudjon játszani,Mert a háromszög fél az oválistól,1,2,3,4,mentalization,1,8.3273,1
sat_mc_2,FF010,13,Mit csinál a háromszög?,A nagy téglalapon kívülre megy.,Táncol,Vitatkozik,Menekül,4,1,2,3,mentalization,4,3.616,1
sat_mc_2,FF083,3,Mit csinál az ovális és a téglalap?,Összeütköznek,Vitatkoznak,Táncolnak,Játszanak,2,1,3,4,mentalization,2,3.1876,1
sat_mc_2,FF083,4,Miért megy a háromszög a sarokba?,Mert örül,Aludni,Mert oda jobban oda illik.,Mert meg van rémülve,4,3,1,2,mentalization,4,3.9791,1
sat_mc_2,FF083,5,Miért megy el a téglalap?,Mert dühös,Mert keres valamit,Mert boldog,"Azért, hogy csak ketten maradjanak itt",1,4,3,2,mentalization,1,4.4133,1
sat_mc_2,FF083,6,Miért megy oda az ovális a háromszöghöz?,Hogy leszidja,Hogy veszekedjenek,Hogy megnyugtassa,Hogy közel legyenek egymáshoz,3,4,2,1,mentalization,3,4.8049,1
sat_mc_2,FF083,9,Miért van a téglalap a háromszög és az ovális között?,Hogy elzárja a háromszöget az oválistól,Hogy ugyanakkora távolságra legyenek egymástól.,Hogy az ovális tudjon játszani,Mert a háromszög fél az oválistól,1,2,3,4,mentalization,1,9.3187,1
sat_mc_2,FF083,13,Mit csinál a háromszög?,A nagy téglalapon kívülre megy.,Táncol,Vitatkozik,Menekül,4,1,2,3,mentalization,4,6.7733,1
sat_mc_2,FF072,3,Mit csinál az ovális és a téglalap?,Összeütköznek,Vitatkoznak,Táncolnak,Játszanak,2,1,3,4,mentalization,2,3.7914,1
sat_mc_2,FF072,4,Miért megy a háromszög a sarokba?,Mert örül,Aludni,Mert oda jobban oda illik.,Mert meg van rémülve,4,3,1,2,mentalization,4,4.5689,1
sat_mc_2,FF072,5,Miért megy el a téglalap?,Mert dühös,Mert keres valamit,Mert boldog,"Azért, hogy csak ketten maradjanak itt",1,4,3,2,mentalization,1,5.1558,1
sat_mc_2,FF072,6,Miért megy oda az ovális a háromszöghöz?,Hogy leszidja,Hogy veszekedjenek,Hogy megnyugtassa,Hogy közel legyenek egymáshoz,3,4,2,1,mentalization,3,3.06,1
sat_mc_2,FF072,9,Miért van a téglalap a háromszög és az ovális között?,Hogy elzárja a háromszöget az oválistól,Hogy ugyanakkora távolságra legyenek egymástól.,Hogy az ovális tudjon játszani,Mert a háromszög fél az oválistól,1,2,3,4,mentalization,1,8.1239,1
sat_mc_2,FF072,13,Mit csinál a háromszög?,A nagy téglalapon kívülre megy.,Táncol,Vitatkozik,Menekül,4,1,2,3,physical,1,8.542,0
sat_mc_2,FF024,3,Mit csinál az ovális és a téglalap?,Összeütköznek,Vitatkoznak,Táncolnak,Játszanak,2,1,3,4,movement,3,4.7286,0
sat_mc_2,FF024,4,Miért megy a háromszög a sarokba?,Mert örül,Aludni,Mert oda jobban oda illik.,Mert meg van rémülve,4,3,1,2,movement,1,10.6316,0
