experiment_version,ID,trial,condition,sentence,response,ACC,RT
trog_javitott,FF211,15.0,gramm,"A felhő, ami előtt a madár van, az lila.",3,0,5.3973
trog_javitott,FF211,5.0,gramm,"A pöttyös labda nagyobb, mint a csíkos kancsó",2,1,4.1211
trog_javitott,FF211,2.0,gramm,A kisfiú palacsintát süt a bohócnak.,1,1,4.1662
trog_javitott,FF211,7.0,gramm,A zöld csésze a kockás vödör fölött van.,3,0,5.0316
trog_javitott,FF211,10.0,gramm,"A boszorkány, aki a seprűn lovagol, ellopta a nyakláncot.",3,1,6.3689
trog_javitott,FF211,0.0,gramm,"A hal kék, de nem pöttyös.",1,1,2.5393
trog_javitott,FF211,3.0,gramm,A kecskét a kakas kergeti.,2,1,4.4684
trog_javitott,FF211,12.0,gramm,"A sárkány, aki a szekrény mögé bújt, csokit eszik.",4,1,6.5959
trog_javitott,FF211,4.0,gramm,A lány az ágyon ugrál és a macska a szőnyegen fekszik.,2,1,3.5584
trog_javitott,FF211,6.0,gramm,A sárga táska a zöld széken van,3,1,4.5528
trog_javitott,FF211,9.0,gramm,"A szív, ami a négyzetben van, az pöttyös.",1,0,3.858
trog_javitott,FF211,1.0,gramm,"A zsiráfnak van egy hosszú, kockás, fekete-fehér nyakkendője.",4,1,6.378
trog_javitott,FF211,17.0,gramm,"A bohóc alszik, de az elefánt nem.",2,1,4.3316
trog_javitott,FF211,8.0,gramm,"A fiú, aki megpuszilja a lányt, az barna hajú.",4,1,3.8835
trog_javitott,FF211,16.0,gramm,"A róka, amit a malac kerget, az kicsi.",4,1,6.5956
trog_javitott,FF211,14.0,gramm,"A lány azt a macskát kergeti, ami kövér.",2,1,4.4197
trog_javitott,FF211,11.0,gramm,"A kislány, aki a busz elejénél áll, piros szoknyában van.",4,1,4.2918
trog_javitott,FF211,13.0,gramm,"A könyv azon a tányéron van, ami kék.",2,1,3.7496
trog_javitott,FF211,10.0,pragm,A fiú már elkészült a homokvárral.,1,0,4.5801
trog_javitott,FF211,13.0,pragm,A fiú a békát is megfogta.,4,1,4.2365
trog_javitott,FF211,1.0,pragm,A szarvas a tévét szereli meg.,1,1,5.8204
trog_javitott,FF211,0.0,pragm,A malac locsolja meg a fát.,4,1,4.5649
trog_javitott,FF211,16.0,pragm,"De ügyes vagy, hogy eltörted a poharat.",1,1,9.5988
trog_javitott,FF211,5.0,pragm,Julcsi húga nagyon nyuszi volt a mikulásünnepségen.,1,1,6.871
trog_javitott,FF211,2.0,pragm,A szoba egy rettenetes disznóól.,4,1,3.7649
trog_javitott,FF211,12.0,pragm,A malac is felmászott a fára.,1,1,4.029
trog_javitott,FF211,4.0,pragm,Pisti egy igazi éjszakai bagoly.,3,1,4.3616
trog_javitott,FF211,3.0,pragm,A hegedűtanár egy sárkány.,2,1,4.2484
trog_javitott,FF211,8.0,pragm,Néhány alma kigurult a kosárból.,1,1,3.7375
trog_javitott,FF211,11.0,pragm,A virágot már kiszínezte a bohóc.,3,0,4.2968
trog_javitott,FF211,7.0,pragm,A legtöbb malac kapott kukoricát,3,0,3.3951
trog_javitott,FF211,14.0,pragm,Piros lufit minden gyerek kapott.,3,1,2.8148
trog_javitott,FF211,17.0,pragm,"Látom, lustálkodtál egész nap, meg is telt a kosár.",2,1,7.9704
trog_javitott,FF211,6.0,pragm,A kislánynak van legalább 3 kutyája.,2,0,7.7064
trog_javitott,FF211,15.0,pragm,Kalapja a libának is van.,2,0,0.0004
trog_javitott,FF211,9.0,pragm,A festő rajzolt egy házat.,2,1,4.1827
trog_javitott,FF156,4.0,gramm,A lány az ágyon ugrál és a macska a szőnyegen fekszik.,2,1,6.18
trog_javitott,FF156,15.0,gramm,"A felhő, ami előtt a madár van, az lila.",1,0,4.8268
trog_javitott,FF156,11.0,gramm,"A kislány, aki a busz elejénél áll, piros szoknyában van.",3,0,10.6218
trog_javitott,FF156,9.0,gramm,"A szív, ami a négyzetben van, az pöttyös.",3,1,6.6989
trog_javitott,FF156,0.0,gramm,"A hal kék, de nem pöttyös.",1,1,3.5029
trog_javitott,FF156,5.0,gramm,"A pöttyös labda nagyobb, mint a csíkos kancsó",2,1,3.4264
trog_javitott,FF156,8.0,gramm,"A fiú, aki megpuszilja a lányt, az barna hajú.",4,1,8.3782
trog_javitott,FF156,12.0,gramm,"A sárkány, aki a szekrény mögé bújt, csokit eszik.",4,1,6.9212
trog_javitott,FF156,13.0,gramm,"A könyv azon a tányéron van, ami kék.",4,0,3.0975
trog_javitott,FF156,3.0,gramm,A kecskét a kakas kergeti.,2,1,4.8437
trog_javitott,FF156,17.0,gramm,"A bohóc alszik, de az elefánt nem.",2,1,6.8697
trog_javitott,FF156,7.0,gramm,A zöld csésze a kockás vödör fölött van.,4,1,4.9538
trog_javitott,FF156,2.0,gramm,A kisfiú palacsintát süt a bohócnak.,1,1,6.5205
trog_javitott,FF156,10.0,gramm,"A boszorkány, aki a seprűn lovagol, ellopta a nyakláncot.",3,1,3.9538
trog_javitott,FF156,16.0,gramm,"A róka, amit a malac kerget, az kicsi.",3,0,5.6424
trog_javitott,FF156,14.0,gramm,"A lány azt a macskát kergeti, ami kövér.",2,1,6.4817
trog_javitott,FF156,6.0,gramm,A sárga táska a zöld széken van,1,0,4.5403
trog_javitott,FF156,1.0,gramm,"A zsiráfnak van egy hosszú, kockás, fekete-fehér nyakkendője.",4,1,4.9192
trog_javitott,FF156,4.0,pragm,Pisti egy igazi éjszakai bagoly.,2,0,3.6908
trog_javitott,FF156,13.0,pragm,A fiú a békát is megfogta.,4,1,5.8863
trog_javitott,FF156,11.0,pragm,A virágot már kiszínezte a bohóc.,4,1,8.3029
trog_javitott,FF156,12.0,pragm,A malac is felmászott a fára.,1,1,3.6964
trog_javitott,FF156,8.0,pragm,Néhány alma kigurult a kosárból.,1,1,3.8604
trog_javitott,FF156,1.0,pragm,A szarvas a tévét szereli meg.,1,1,4.9248
trog_javitott,FF156,0.0,pragm,A malac locsolja meg a fát.,4,1,6.0482
trog_javitott,FF156,3.0,pragm,A hegedűtanár egy sárkány.,4,0,3.6541
trog_javitott,FF156,2.0,pragm,A szoba egy rettenetes disznóól.,1,0,3.2746
trog_javitott,FF156,5.0,pragm,Julcsi húga nagyon nyuszi volt a mikulásünnepségen.,4,0,0.6163
trog_javitott,FF156,16.0,pragm,"De ügyes vagy, hogy eltörted a poharat.",3,0,0.3126
trog_javitott,FF156,9.0,pragm,A festő rajzolt egy házat.,2,1,0.3095
trog_javitott,FF156,15.0,pragm,Kalapja a libának is van.,3,0,0.35
trog_javitott,FF156,6.0,pragm,A kislánynak van legalább 3 kutyája.,3,0,0.0473
trog_javitott,FF156,10.0,pragm,A fiú már elkészült a homokvárral.,2,1,0.0607
trog_javitott,FF156,17.0,pragm,"Látom, lustálkodtál egész nap, meg is telt a kosár.",2,1,0.1219
trog_javitott,FF156,7.0,pragm,A legtöbb malac kapott kukoricát,2,1,0.1447
trog_javitott,FF156,14.0,pragm,Piros lufit minden gyerek kapott.,3,1,0.3346
trog_javitott,BL211,11.0,gramm,"A kislány, aki a busz elejénél áll, piros szoknyában van.",4,1,5.101
trog_javitott,BL211,10.0,gramm,"A boszorkány, aki a seprűn lovagol, ellopta a nyakláncot.",1,0,5.489
trog_javitott,BL211,13.0,gramm,"A könyv azon a tányéron van, ami kék.",2,1,5.579
trog_javitott,BL211,4.0,gramm,A lány az ágyon ugrál és a macska a szőnyegen fekszik.,2,1,5.301
trog_javitott,BL211,16.0,gramm,"A róka, amit a malac kerget, az kicsi.",4,1,5.164
trog_javitott,BL211,7.0,gramm,A zöld csésze a kockás vödör fölött van.,4,1,4.307
trog_javitott,BL211,14.0,gramm,"A lány azt a macskát kergeti, ami kövér.",2,1,5.376
trog_javitott,BL211,9.0,gramm,"A szív, ami a négyzetben van, az pöttyös.",3,1,4.981
trog_javitott,BL211,5.0,gramm,"A pöttyös labda nagyobb, mint a csíkos kancsó",2,1,3.91
trog_javitott,BL211,0.0,gramm,"A hal kék, de nem pöttyös.",1,1,3.298
trog_javitott,BL211,15.0,gramm,"A felhő, ami előtt a madár van, az lila.",4,1,4.861
trog_javitott,BL211,17.0,gramm,"A bohóc alszik, de az elefánt nem.",2,1,6.004
trog_javitott,BL211,2.0,gramm,A kisfiú palacsintát süt a bohócnak.,1,1,4.087
trog_javitott,BL211,1.0,gramm,"A zsiráfnak van egy hosszú, kockás, fekete-fehér nyakkendője.",4,1,6.107
trog_javitott,BL211,6.0,gramm,A sárga táska a zöld széken van,3,1,3.028
trog_javitott,BL211,3.0,gramm,A kecskét a kakas kergeti.,2,1,2.756
trog_javitott,BL211,12.0,gramm,"A sárkány, aki a szekrény mögé bújt, csokit eszik.",4,1,9.718
trog_javitott,BL211,8.0,gramm,"A fiú, aki megpuszilja a lányt, az barna hajú.",4,1,6.48
trog_javitott,BL211,1.0,pragm,A szarvas a tévét szereli meg.,1,1,3.941
trog_javitott,BL211,10.0,pragm,A fiú már elkészült a homokvárral.,4,0,4.633
trog_javitott,BL211,4.0,pragm,Pisti egy igazi éjszakai bagoly.,3,1,3.977
trog_javitott,BL211,11.0,pragm,A virágot már kiszínezte a bohóc.,4,1,12.956
trog_javitott,BL211,5.0,pragm,Julcsi húga nagyon nyuszi volt a mikulásünnepségen.,1,1,11.342
trog_javitott,BL211,14.0,pragm,Piros lufit minden gyerek kapott.,3,1,10.55
trog_javitott,BL211,15.0,pragm,Kalapja a libának is van.,3,0,10.598
trog_javitott,BL211,8.0,pragm,Néhány alma kigurult a kosárból.,1,1,7.752
trog_javitott,BL211,7.0,pragm,A legtöbb malac kapott kukoricát,2,1,12.382
trog_javitott,BL211,17.0,pragm,"Látom, lustálkodtál egész nap, meg is telt a kosár.",2,1,7.51
trog_javitott,BL211,3.0,pragm,A hegedűtanár egy sárkány.,3,0,7.996
trog_javitott,BL211,2.0,pragm,A szoba egy rettenetes disznóól.,3,0,4.831
trog_javitott,BL211,6.0,pragm,A kislánynak van legalább 3 kutyája.,3,0,15.594
trog_javitott,BL211,13.0,pragm,A fiú a békát is megfogta.,4,1,5.499
trog_javitott,BL211,9.0,pragm,A festő rajzolt egy házat.,2,1,11.478
trog_javitott,BL211,16.0,pragm,"De ügyes vagy, hogy eltörted a poharat.",2,0,7.51
trog_javitott,BL211,0.0,pragm,A malac locsolja meg a fát.,1,0,7.881
trog_javitott,BL211,12.0,pragm,A malac is felmászott a fára.,1,1,11.566
trog_javitott,FF170_2,10.0,gramm,"A boszorkány, aki a seprűn lovagol, ellopta a nyakláncot.",3,1,6.108
trog_javitott,FF170_2,0.0,gramm,"A hal kék, de nem pöttyös.",1,1,3.664
trog_javitott,FF170_2,3.0,gramm,A kecskét a kakas kergeti.,2,1,5.996
trog_javitott,FF170_2,2.0,gramm,A kisfiú palacsintát süt a bohócnak.,1,1,4.745
trog_javitott,FF170_2,1.0,gramm,"A zsiráfnak van egy hosszú, kockás, fekete-fehér nyakkendője.",4,1,6.341
trog_javitott,FF170_2,13.0,gramm,"A könyv azon a tányéron van, ami kék.",2,1,5.482
trog_javitott,FF170_2,16.0,gramm,"A róka, amit a malac kerget, az kicsi.",4,1,5.713
trog_javitott,FF170_2,7.0,gramm,A zöld csésze a kockás vödör fölött van.,4,1,6.781
trog_javitott,FF170_2,17.0,gramm,"A bohóc alszik, de az elefánt nem.",2,1,7.64
trog_javitott,FF170_2,8.0,gramm,"A fiú, aki megpuszilja a lányt, az barna hajú.",4,1,5.745
trog_javitott,FF170_2,11.0,gramm,"A kislány, aki a busz elejénél áll, piros szoknyában van.",4,1,6.995
trog_javitott,FF170_2,12.0,gramm,"A sárkány, aki a szekrény mögé bújt, csokit eszik.",4,1,6.342
trog_javitott,FF170_2,9.0,gramm,"A szív, ami a négyzetben van, az pöttyös.",3,1,6.868
trog_javitott,FF170_2,6.0,gramm,A sárga táska a zöld széken van,3,1,4.798
trog_javitott,FF170_2,15.0,gramm,"A felhő, ami előtt a madár van, az lila.",3,0,12.632
trog_javitott,FF170_2,4.0,gramm,A lány az ágyon ugrál és a macska a szőnyegen fekszik.,2,1,4.81
trog_javitott,FF170_2,5.0,gramm,"A pöttyös labda nagyobb, mint a csíkos kancsó",2,1,4.03
trog_javitott,FF170_2,14.0,gramm,"A lány azt a macskát kergeti, ami kövér.",2,1,5.798
trog_javitott,FF170_2,9.0,pragm,A festő rajzolt egy házat.,2,1,4.493
trog_javitott,FF170_2,2.0,pragm,A szoba egy rettenetes disznóól.,4,1,6.168
trog_javitott,FF170_2,6.0,pragm,A kislánynak van legalább 3 kutyája.,4,1,5.991
trog_javitott,FF170_2,1.0,pragm,A szarvas a tévét szereli meg.,1,1,7.989
trog_javitott,FF170_2,17.0,pragm,"Látom, lustálkodtál egész nap, meg is telt a kosár.",1,0,12.83
trog_javitott,FF170_2,4.0,pragm,Pisti egy igazi éjszakai bagoly.,3,1,7.831
trog_javitott,FF170_2,13.0,pragm,A fiú a békát is megfogta.,4,1,5.287
trog_javitott,FF170_2,16.0,pragm,"De ügyes vagy, hogy eltörted a poharat.",1,1,7.743
trog_javitott,FF170_2,10.0,pragm,A fiú már elkészült a homokvárral.,2,1,11.275
trog_javitott,FF170_2,8.0,pragm,Néhány alma kigurult a kosárból.,1,1,5.268
trog_javitott,FF170_2,7.0,pragm,A legtöbb malac kapott kukoricát,2,1,7.533
trog_javitott,FF170_2,14.0,pragm,Piros lufit minden gyerek kapott.,2,0,8.127
trog_javitott,FF170_2,0.0,pragm,A malac locsolja meg a fát.,2,0,6.592
trog_javitott,FF170_2,5.0,pragm,Julcsi húga nagyon nyuszi volt a mikulásünnepségen.,1,1,9.362
trog_javitott,FF170_2,15.0,pragm,Kalapja a libának is van.,1,1,9.28
trog_javitott,FF170_2,11.0,pragm,A virágot már kiszínezte a bohóc.,4,1,6.61
trog_javitott,FF170_2,12.0,pragm,A malac is felmászott a fára.,2,0,5.923
trog_javitott,FF170_2,3.0,pragm,A hegedűtanár egy sárkány.,2,1,6.388
trog_javitott,FF170_1,6.0,gramm,A sárga táska a zöld széken van,3,1,3.525
trog_javitott,FF170_1,5.0,gramm,"A pöttyös labda nagyobb, mint a csíkos kancsó",2,1,3.0381
trog_javitott,FF170_1,12.0,gramm,"A sárkány, aki a szekrény mögé bújt, csokit eszik.",4,1,7.2247
trog_javitott,FF170_1,11.0,gramm,"A kislány, aki a busz elejénél áll, piros szoknyában van.",4,1,4.0828
trog_javitott,FF170_1,1.0,gramm,"A zsiráfnak van egy hosszú, kockás, fekete-fehér nyakkendője.",4,1,4.9028
trog_javitott,FF170_1,10.0,gramm,"A boszorkány, aki a seprűn lovagol, ellopta a nyakláncot.",3,1,3.9946
trog_javitott,FF170_1,8.0,gramm,"A fiú, aki megpuszilja a lányt, az barna hajú.",4,1,5.2565
trog_javitott,FF170_1,15.0,gramm,"A felhő, ami előtt a madár van, az lila.",4,1,5.9281
trog_javitott,FF170_1,9.0,gramm,"A szív, ami a négyzetben van, az pöttyös.",3,1,5.0763
trog_javitott,FF170_1,4.0,gramm,A lány az ágyon ugrál és a macska a szőnyegen fekszik.,2,1,5.7488
trog_javitott,FF170_1,16.0,gramm,"A róka, amit a malac kerget, az kicsi.",4,1,5.9977
trog_javitott,FF170_1,7.0,gramm,A zöld csésze a kockás vödör fölött van.,4,1,4.6001
trog_javitott,FF170_1,2.0,gramm,A kisfiú palacsintát süt a bohócnak.,1,1,5.1623
trog_javitott,FF170_1,0.0,gramm,"A hal kék, de nem pöttyös.",1,1,2.7897
trog_javitott,FF170_1,3.0,gramm,A kecskét a kakas kergeti.,2,1,4.1423
trog_javitott,FF170_1,13.0,gramm,"A könyv azon a tányéron van, ami kék.",2,1,3.3815
trog_javitott,FF170_1,17.0,gramm,"A bohóc alszik, de az elefánt nem.",2,1,5.6349
trog_javitott,FF170_1,14.0,gramm,"A lány azt a macskát kergeti, ami kövér.",2,1,4.218
trog_javitott,FF170_1,16.0,pragm,"De ügyes vagy, hogy eltörted a poharat.",2,0,5.133
trog_javitott,FF170_1,9.0,pragm,A festő rajzolt egy házat.,2,1,6.6163
trog_javitott,FF170_1,8.0,pragm,Néhány alma kigurult a kosárból.,1,1,5.3123
trog_javitott,FF170_1,3.0,pragm,A hegedűtanár egy sárkány.,4,0,4.3654
trog_javitott,FF170_1,15.0,pragm,Kalapja a libának is van.,1,1,9.3545
trog_javitott,FF170_1,4.0,pragm,Pisti egy igazi éjszakai bagoly.,3,1,4.0401
trog_javitott,FF170_1,14.0,pragm,Piros lufit minden gyerek kapott.,3,1,7.2137
trog_javitott,FF170_1,10.0,pragm,A fiú már elkészült a homokvárral.,2,1,8.6437
trog_javitott,FF170_1,2.0,pragm,A szoba egy rettenetes disznóól.,4,1,4.3219
trog_javitott,FF170_1,0.0,pragm,A malac locsolja meg a fát.,4,1,5.3146
trog_javitott,FF170_1,6.0,pragm,A kislánynak van legalább 3 kutyája.,4,1,8.3301
trog_javitott,FF170_1,7.0,pragm,A legtöbb malac kapott kukoricát,2,1,7.4452
trog_javitott,FF170_1,17.0,pragm,"Látom, lustálkodtál egész nap, meg is telt a kosár.",2,1,5.7354
trog_javitott,FF170_1,5.0,pragm,Julcsi húga nagyon nyuszi volt a mikulásünnepségen.,1,1,5.0571
trog_javitott,FF170_1,1.0,pragm,A szarvas a tévét szereli meg.,1,1,9.7911
trog_javitott,FF170_1,13.0,pragm,A fiú a békát is megfogta.,4,1,5.5533
trog_javitott,FF170_1,11.0,pragm,A virágot már kiszínezte a bohóc.,4,1,10.5385
trog_javitott,FF170_1,12.0,pragm,A malac is felmászott a fára.,1,1,4.5195
trog_javitott,FF169_2,11.0,gramm,"A kislány, aki a busz elejénél áll, piros szoknyában van.",4,1,3.9076
trog_javitott,FF169_2,10.0,gramm,"A boszorkány, aki a seprűn lovagol, ellopta a nyakláncot.",3,1,4.1276
trog_javitott,FF169_2,3.0,gramm,A kecskét a kakas kergeti.,2,1,3.1578
trog_javitott,FF169_2,15.0,gramm,"A felhő, ami előtt a madár van, az lila.",4,1,3.7674
trog_javitott,FF169_2,14.0,gramm,"A lány azt a macskát kergeti, ami kövér.",2,1,3.7262
trog_javitott,FF169_2,6.0,gramm,A sárga táska a zöld széken van,3,1,3.1658
trog_javitott,FF169_2,9.0,gramm,"A szív, ami a négyzetben van, az pöttyös.",3,1,4.0236
trog_javitott,FF169_2,0.0,gramm,"A hal kék, de nem pöttyös.",1,1,2.6494
trog_javitott,FF169_2,8.0,gramm,"A fiú, aki megpuszilja a lányt, az barna hajú.",4,1,3.6985
trog_javitott,FF169_2,17.0,gramm,"A bohóc alszik, de az elefánt nem.",2,1,3.7568
trog_javitott,FF169_2,16.0,gramm,"A róka, amit a malac kerget, az kicsi.",4,1,3.9651
trog_javitott,FF169_2,4.0,gramm,A lány az ágyon ugrál és a macska a szőnyegen fekszik.,2,1,4.2494
trog_javitott,FF169_2,5.0,gramm,"A pöttyös labda nagyobb, mint a csíkos kancsó",2,1,3.4734
trog_javitott,FF169_2,1.0,gramm,"A zsiráfnak van egy hosszú, kockás, fekete-fehér nyakkendője.",4,1,4.2029
trog_javitott,FF169_2,2.0,gramm,A kisfiú palacsintát süt a bohócnak.,1,1,3.8196
trog_javitott,FF169_2,12.0,gramm,"A sárkány, aki a szekrény mögé bújt, csokit eszik.",4,1,5.5107
trog_javitott,FF169_2,7.0,gramm,A zöld csésze a kockás vödör fölött van.,4,1,3.348
trog_javitott,FF169_2,13.0,gramm,"A könyv azon a tányéron van, ami kék.",2,1,3.6402
trog_javitott,FF169_2,8.0,pragm,Néhány alma kigurult a kosárból.,1,1,3.8065
trog_javitott,FF169_2,16.0,pragm,"De ügyes vagy, hogy eltörted a poharat.",1,1,3.23
trog_javitott,FF169_2,10.0,pragm,A fiú már elkészült a homokvárral.,2,1,7.1985
trog_javitott,FF169_2,13.0,pragm,A fiú a békát is megfogta.,4,1,4.8764
trog_javitott,FF169_2,14.0,pragm,Piros lufit minden gyerek kapott.,3,1,4.9142
trog_javitott,FF169_2,7.0,pragm,A legtöbb malac kapott kukoricát,1,0,4.5593
trog_javitott,FF169_2,6.0,pragm,A kislánynak van legalább 3 kutyája.,4,1,6.8792
trog_javitott,FF169_2,12.0,pragm,A malac is felmászott a fára.,1,1,3.6026
trog_javitott,FF169_2,0.0,pragm,A malac locsolja meg a fát.,4,1,3.8862
trog_javitott,FF169_2,9.0,pragm,A festő rajzolt egy házat.,2,1,4.1336
trog_javitott,FF169_2,5.0,pragm,Julcsi húga nagyon nyuszi volt a mikulásünnepségen.,4,0,4.3212
trog_javitott,FF169_2,11.0,pragm,A virágot már kiszínezte a bohóc.,4,1,4.5205
trog_javitott,FF169_2,3.0,pragm,A hegedűtanár egy sárkány.,2,1,4.1707
trog_javitott,FF169_2,4.0,pragm,Pisti egy igazi éjszakai bagoly.,3,1,3.1741
trog_javitott,FF169_2,1.0,pragm,A szarvas a tévét szereli meg.,1,1,7.4434
trog_javitott,FF169_2,2.0,pragm,A szoba egy rettenetes disznóól.,4,1,3.3481
trog_javitott,FF169_2,17.0,pragm,"Látom, lustálkodtál egész nap, meg is telt a kosár.",4,0,12.7675
trog_javitott,FF169_2,15.0,pragm,Kalapja a libának is van.,3,0,4.8177
trog_javitott,FF169_1,5.0,gramm,"A pöttyös labda nagyobb, mint a csíkos kancsó",2,1,4.0256
trog_javitott,FF169_1,17.0,gramm,"A bohóc alszik, de az elefánt nem.",2,1,5.5723
trog_javitott,FF169_1,13.0,gramm,"A könyv azon a tányéron van, ami kék.",2,1,3.7162
trog_javitott,FF169_1,0.0,gramm,"A hal kék, de nem pöttyös.",1,1,2.6088
trog_javitott,FF169_1,11.0,gramm,"A kislány, aki a busz elejénél áll, piros szoknyában van.",3,0,4.8135
trog_javitott,FF169_1,2.0,gramm,A kisfiú palacsintát süt a bohócnak.,1,1,7.7779
trog_javitott,FF169_1,4.0,gramm,A lány az ágyon ugrál és a macska a szőnyegen fekszik.,2,1,4.3812
trog_javitott,FF169_1,6.0,gramm,A sárga táska a zöld széken van,3,1,3.0715
trog_javitott,FF169_1,10.0,gramm,"A boszorkány, aki a seprűn lovagol, ellopta a nyakláncot.",3,1,5.6759
trog_javitott,FF169_1,16.0,gramm,"A róka, amit a malac kerget, az kicsi.",4,1,4.2171
trog_javitott,FF169_1,3.0,gramm,A kecskét a kakas kergeti.,2,1,3.6104
trog_javitott,FF169_1,9.0,gramm,"A szív, ami a négyzetben van, az pöttyös.",3,1,4.9821
trog_javitott,FF169_1,1.0,gramm,"A zsiráfnak van egy hosszú, kockás, fekete-fehér nyakkendője.",4,1,5.4735
trog_javitott,FF169_1,12.0,gramm,"A sárkány, aki a szekrény mögé bújt, csokit eszik.",4,1,7.6803
trog_javitott,FF169_1,8.0,gramm,"A fiú, aki megpuszilja a lányt, az barna hajú.",4,1,4.8781
trog_javitott,FF169_1,14.0,gramm,"A lány azt a macskát kergeti, ami kövér.",2,1,4.741
trog_javitott,FF169_1,7.0,gramm,A zöld csésze a kockás vödör fölött van.,4,1,5.1901
trog_javitott,FF169_1,15.0,gramm,"A felhő, ami előtt a madár van, az lila.",4,1,5.7403
trog_javitott,FF169_1,7.0,pragm,A legtöbb malac kapott kukoricát,2,1,6.175
trog_javitott,FF169_1,16.0,pragm,"De ügyes vagy, hogy eltörted a poharat.",2,0,6.9857
trog_javitott,FF169_1,5.0,pragm,Julcsi húga nagyon nyuszi volt a mikulásünnepségen.,1,1,8.3023
trog_javitott,FF169_1,3.0,pragm,A hegedűtanár egy sárkány.,2,1,6.3724
trog_javitott,FF169_1,8.0,pragm,Néhány alma kigurult a kosárból.,1,1,4.1596
trog_javitott,FF169_1,4.0,pragm,Pisti egy igazi éjszakai bagoly.,3,1,4.7216
trog_javitott,FF169_1,9.0,pragm,A festő rajzolt egy házat.,2,1,6.4293
trog_javitott,FF169_1,13.0,pragm,A fiú a békát is megfogta.,4,1,5.2377
trog_javitott,FF169_1,2.0,pragm,A szoba egy rettenetes disznóól.,4,1,4.9835
trog_javitott,FF169_1,12.0,pragm,A malac is felmászott a fára.,1,1,4.837
trog_javitott,FF169_1,1.0,pragm,A szarvas a tévét szereli meg.,1,1,9.7094
trog_javitott,FF169_1,14.0,pragm,Piros lufit minden gyerek kapott.,2,0,6.5841
trog_javitott,FF169_1,17.0,pragm,"Látom, lustálkodtál egész nap, meg is telt a kosár.",2,1,17.4103
trog_javitott,FF169_1,10.0,pragm,A fiú már elkészült a homokvárral.,2,1,8.6891
trog_javitott,FF169_1,15.0,pragm,Kalapja a libának is van.,1,1,4.1125
trog_javitott,FF169_1,6.0,pragm,A kislánynak van legalább 3 kutyája.,4,1,9.2209
trog_javitott,FF169_1,0.0,pragm,A malac locsolja meg a fát.,4,1,5.6345
trog_javitott,FF169_1,11.0,pragm,A virágot már kiszínezte a bohóc.,4,1,7.5893
trog_javitott,FF168_1,11.0,gramm,"A kislány, aki a busz elejénél áll, piros szoknyában van.",4,1,5.5045
trog_javitott,FF168_1,2.0,gramm,A kisfiú palacsintát süt a bohócnak.,1,1,5.7859
trog_javitott,FF168_1,3.0,gramm,A kecskét a kakas kergeti.,2,1,2.4197
trog_javitott,FF168_1,17.0,gramm,"A bohóc alszik, de az elefánt nem.",2,1,3.1738
trog_javitott,FF168_1,14.0,gramm,"A lány azt a macskát kergeti, ami kövér.",2,1,3.8727
trog_javitott,FF168_1,0.0,gramm,"A hal kék, de nem pöttyös.",1,1,2.3112
trog_javitott,FF168_1,10.0,gramm,"A boszorkány, aki a seprűn lovagol, ellopta a nyakláncot.",3,1,3.8504
trog_javitott,FF168_1,5.0,gramm,"A pöttyös labda nagyobb, mint a csíkos kancsó",2,1,3.6183
trog_javitott,FF168_1,9.0,gramm,"A szív, ami a négyzetben van, az pöttyös.",3,1,4.7588
trog_javitott,FF168_1,8.0,gramm,"A fiú, aki megpuszilja a lányt, az barna hajú.",4,1,3.917
trog_javitott,FF168_1,16.0,gramm,"A róka, amit a malac kerget, az kicsi.",4,1,5.0423
trog_javitott,FF168_1,6.0,gramm,A sárga táska a zöld széken van,3,1,3.4813
trog_javitott,FF168_1,7.0,gramm,A zöld csésze a kockás vödör fölött van.,4,1,3.9781
trog_javitott,FF168_1,15.0,gramm,"A felhő, ami előtt a madár van, az lila.",4,1,4.5838
trog_javitott,FF168_1,13.0,gramm,"A könyv azon a tányéron van, ami kék.",2,1,3.6413
trog_javitott,FF168_1,12.0,gramm,"A sárkány, aki a szekrény mögé bújt, csokit eszik.",3,0,8.4059
trog_javitott,FF168_1,1.0,gramm,"A zsiráfnak van egy hosszú, kockás, fekete-fehér nyakkendője.",4,1,4.1465
trog_javitott,FF168_1,4.0,gramm,A lány az ágyon ugrál és a macska a szőnyegen fekszik.,2,1,3.7916
trog_javitott,FF168_1,6.0,pragm,A kislánynak van legalább 3 kutyája.,4,1,6.9635
trog_javitott,FF168_1,14.0,pragm,Piros lufit minden gyerek kapott.,3,1,5.9339
trog_javitott,FF168_1,4.0,pragm,Pisti egy igazi éjszakai bagoly.,3,1,5.0679
trog_javitott,FF168_1,0.0,pragm,A malac locsolja meg a fát.,4,1,5.564
trog_javitott,FF168_1,2.0,pragm,A szoba egy rettenetes disznóól.,4,1,4.5063
trog_javitott,FF168_1,13.0,pragm,A fiú a békát is megfogta.,4,1,4.2933
trog_javitott,FF168_1,11.0,pragm,A virágot már kiszínezte a bohóc.,4,1,7.9946
trog_javitott,FF168_1,5.0,pragm,Julcsi húga nagyon nyuszi volt a mikulásünnepségen.,1,1,3.914
trog_javitott,FF168_1,1.0,pragm,A szarvas a tévét szereli meg.,1,1,6.0444
trog_javitott,FF168_1,16.0,pragm,"De ügyes vagy, hogy eltörted a poharat.",1,1,6.1945
trog_javitott,FF168_1,3.0,pragm,A hegedűtanár egy sárkány.,4,0,4.7869
trog_javitott,FF168_1,8.0,pragm,Néhány alma kigurult a kosárból.,1,1,3.4226
trog_javitott,FF168_1,7.0,pragm,A legtöbb malac kapott kukoricát,2,1,2.9695
trog_javitott,FF168_1,10.0,pragm,A fiú már elkészült a homokvárral.,2,1,2.7735
trog_javitott,FF168_1,12.0,pragm,A malac is felmászott a fára.,1,1,2.7873
trog_javitott,FF168_1,9.0,pragm,A festő rajzolt egy házat.,2,1,3.3837
trog_javitott,FF168_1,17.0,pragm,"Látom, lustálkodtál egész nap, meg is telt a kosár.",2,1,5.3293
trog_javitott,FF168_1,15.0,pragm,Kalapja a libának is van.,1,1,3.509
trog_javitott,FF168_2,14.0,gramm,"A lány azt a macskát kergeti, ami kövér.",3,0,4.2969
trog_javitott,FF168_2,11.0,gramm,"A kislány, aki a busz elejénél áll, piros szoknyában van.",4,1,4.1174
trog_javitott,FF168_2,4.0,gramm,A lány az ágyon ugrál és a macska a szőnyegen fekszik.,2,1,4.7094
trog_javitott,FF168_2,6.0,gramm,A sárga táska a zöld széken van,3,1,2.7198
trog_javitott,FF168_2,3.0,gramm,A kecskét a kakas kergeti.,2,1,3.045
trog_javitott,FF168_2,16.0,gramm,"A róka, amit a malac kerget, az kicsi.",4,1,4.7353
trog_javitott,FF168_2,10.0,gramm,"A boszorkány, aki a seprűn lovagol, ellopta a nyakláncot.",3,1,5.2862
trog_javitott,FF168_2,1.0,gramm,"A zsiráfnak van egy hosszú, kockás, fekete-fehér nyakkendője.",4,1,5.2555
trog_javitott,FF168_2,0.0,gramm,"A hal kék, de nem pöttyös.",1,1,3.7808
trog_javitott,FF168_2,7.0,gramm,A zöld csésze a kockás vödör fölött van.,4,1,4.6428
trog_javitott,FF168_2,8.0,gramm,"A fiú, aki megpuszilja a lányt, az barna hajú.",4,1,5.4807
trog_javitott,FF168_2,13.0,gramm,"A könyv azon a tányéron van, ami kék.",2,1,6.578
trog_javitott,FF168_2,15.0,gramm,"A felhő, ami előtt a madár van, az lila.",4,1,4.5154
trog_javitott,FF168_2,12.0,gramm,"A sárkány, aki a szekrény mögé bújt, csokit eszik.",4,1,7.4691
trog_javitott,FF168_2,17.0,gramm,"A bohóc alszik, de az elefánt nem.",2,1,7.5344
trog_javitott,FF168_2,5.0,gramm,"A pöttyös labda nagyobb, mint a csíkos kancsó",2,1,4.4485
trog_javitott,FF168_2,9.0,gramm,"A szív, ami a négyzetben van, az pöttyös.",3,1,4.6307
trog_javitott,FF168_2,2.0,gramm,A kisfiú palacsintát süt a bohócnak.,1,1,3.6953
trog_javitott,FF168_2,8.0,pragm,Néhány alma kigurult a kosárból.,1,1,6.322
trog_javitott,FF168_2,16.0,pragm,"De ügyes vagy, hogy eltörted a poharat.",1,1,6.6485
trog_javitott,FF168_2,11.0,pragm,A virágot már kiszínezte a bohóc.,4,1,8.5872
trog_javitott,FF168_2,12.0,pragm,A malac is felmászott a fára.,1,1,6.2475
trog_javitott,FF168_2,0.0,pragm,A malac locsolja meg a fát.,4,1,7.2569
trog_javitott,FF168_2,5.0,pragm,Julcsi húga nagyon nyuszi volt a mikulásünnepségen.,1,1,5.2906
trog_javitott,FF168_2,10.0,pragm,A fiú már elkészült a homokvárral.,2,1,9.9404
trog_javitott,FF168_2,13.0,pragm,A fiú a békát is megfogta.,4,1,6.6973
trog_javitott,FF168_2,9.0,pragm,A festő rajzolt egy házat.,2,1,6.3007
trog_javitott,FF168_2,2.0,pragm,A szoba egy rettenetes disznóól.,4,1,3.8938
trog_javitott,FF168_2,17.0,pragm,"Látom, lustálkodtál egész nap, meg is telt a kosár.",2,1,17.5096
trog_javitott,FF168_2,6.0,pragm,A kislánynak van legalább 3 kutyája.,4,1,5.262
trog_javitott,FF168_2,3.0,pragm,A hegedűtanár egy sárkány.,2,1,4.9901
trog_javitott,FF168_2,15.0,pragm,Kalapja a libának is van.,1,1,10.1881
trog_javitott,FF168_2,1.0,pragm,A szarvas a tévét szereli meg.,1,1,6.8351
trog_javitott,FF168_2,14.0,pragm,Piros lufit minden gyerek kapott.,2,0,7.582
trog_javitott,FF168_2,7.0,pragm,A legtöbb malac kapott kukoricát,2,1,6.2937
trog_javitott,FF168_2,4.0,pragm,Pisti egy igazi éjszakai bagoly.,3,1,3.7035
trog_javitott,BL173,12.0,gramm,"A sárkány, aki a szekrény mögé bújt, csokit eszik.",3,0,9.8318
trog_javitott,BL173,14.0,gramm,"A lány azt a macskát kergeti, ami kövér.",2,1,9.6397
trog_javitott,BL173,17.0,gramm,"A bohóc alszik, de az elefánt nem.",2,1,5.5197
trog_javitott,BL173,7.0,gramm,A zöld csésze a kockás vödör fölött van.,4,1,5.8271
trog_javitott,BL173,6.0,gramm,A sárga táska a zöld széken van,3,1,3.9244
trog_javitott,BL173,10.0,gramm,"A boszorkány, aki a seprűn lovagol, ellopta a nyakláncot.",1,0,5.2993
trog_javitott,BL173,3.0,gramm,A kecskét a kakas kergeti.,2,1,4.3957
trog_javitott,BL173,2.0,gramm,A kisfiú palacsintát süt a bohócnak.,1,1,5.0257
trog_javitott,BL173,16.0,gramm,"A róka, amit a malac kerget, az kicsi.",4,1,7.2658
trog_javitott,BL173,8.0,gramm,"A fiú, aki megpuszilja a lányt, az barna hajú.",4,1,9.1942
trog_javitott,BL173,13.0,gramm,"A könyv azon a tányéron van, ami kék.",2,1,5.9793
trog_javitott,BL173,15.0,gramm,"A felhő, ami előtt a madár van, az lila.",4,1,13.4868
trog_javitott,BL173,1.0,gramm,"A zsiráfnak van egy hosszú, kockás, fekete-fehér nyakkendője.",4,1,6.5505
trog_javitott,BL173,4.0,gramm,A lány az ágyon ugrál és a macska a szőnyegen fekszik.,2,1,5.2075
trog_javitott,BL173,9.0,gramm,"A szív, ami a négyzetben van, az pöttyös.",3,1,5.7681
trog_javitott,BL173,5.0,gramm,"A pöttyös labda nagyobb, mint a csíkos kancsó",2,1,5.1142
trog_javitott,BL173,11.0,gramm,"A kislány, aki a busz elejénél áll, piros szoknyában van.",4,1,8.5313
trog_javitott,BL173,0.0,gramm,"A hal kék, de nem pöttyös.",1,1,3.5764
trog_javitott,BL173,15.0,pragm,Kalapja a libának is van.,1,1,8.6536
trog_javitott,BL173,1.0,pragm,A szarvas a tévét szereli meg.,2,0,11.417
trog_javitott,BL173,2.0,pragm,A szoba egy rettenetes disznóól.,4,1,11.5168
trog_javitott,BL173,4.0,pragm,Pisti egy igazi éjszakai bagoly.,3,1,11.2365
trog_javitott,BL173,8.0,pragm,Néhány alma kigurult a kosárból.,1,1,7.378
trog_javitott,BL173,13.0,pragm,A fiú a békát is megfogta.,4,1,5.6909
trog_javitott,BL173,11.0,pragm,A virágot már kiszínezte a bohóc.,4,1,14.4333
trog_javitott,BL173,0.0,pragm,A malac locsolja meg a fát.,2,0,11.7771
trog_javitott,BL173,14.0,pragm,Piros lufit minden gyerek kapott.,3,1,15.5013
trog_javitott,BL173,10.0,pragm,A fiú már elkészült a homokvárral.,4,0,16.8053
trog_javitott,BL173,9.0,pragm,A festő rajzolt egy házat.,2,1,5.2742
trog_javitott,BL173,6.0,pragm,A kislánynak van legalább 3 kutyája.,4,1,13.1687
trog_javitott,BL173,16.0,pragm,"De ügyes vagy, hogy eltörted a poharat.",2,0,10.1932
trog_javitott,BL173,7.0,pragm,A legtöbb malac kapott kukoricát,2,1,6.0561
trog_javitott,BL173,5.0,pragm,Julcsi húga nagyon nyuszi volt a mikulásünnepségen.,1,1,8.8413
trog_javitott,BL173,17.0,pragm,"Látom, lustálkodtál egész nap, meg is telt a kosár.",2,1,15.3042
trog_javitott,BL173,12.0,pragm,A malac is felmászott a fára.,1,1,5.5055
trog_javitott,BL173,3.0,pragm,A hegedűtanár egy sárkány.,2,1,14.3461
trog_javitott,KOR161,3.0,gramm,A kecskét a kakas kergeti.,2,1,5.8422
trog_javitott,KOR161,14.0,gramm,"A lány azt a macskát kergeti, ami kövér.",2,1,5.9489
trog_javitott,KOR161,17.0,gramm,"A bohóc alszik, de az elefánt nem.",2,1,5.4266
trog_javitott,KOR161,11.0,gramm,"A kislány, aki a busz elejénél áll, piros szoknyában van.",4,1,6.2882
trog_javitott,KOR161,16.0,gramm,"A róka, amit a malac kerget, az kicsi.",4,1,5.2609
trog_javitott,KOR161,9.0,gramm,"A szív, ami a négyzetben van, az pöttyös.",3,1,6.6256
trog_javitott,KOR161,2.0,gramm,A kisfiú palacsintát süt a bohócnak.,1,1,6.4959
trog_javitott,KOR161,1.0,gramm,"A zsiráfnak van egy hosszú, kockás, fekete-fehér nyakkendője.",4,1,4.5364
trog_javitott,KOR161,13.0,gramm,"A könyv azon a tányéron van, ami kék.",2,1,4.2417
trog_javitott,KOR161,4.0,gramm,A lány az ágyon ugrál és a macska a szőnyegen fekszik.,2,1,4.3636
trog_javitott,KOR161,8.0,gramm,"A fiú, aki megpuszilja a lányt, az barna hajú.",4,1,4.3986
trog_javitott,KOR161,15.0,gramm,"A felhő, ami előtt a madár van, az lila.",4,1,4.1393
trog_javitott,KOR161,10.0,gramm,"A boszorkány, aki a seprűn lovagol, ellopta a nyakláncot.",3,1,9.0937
trog_javitott,KOR161,7.0,gramm,A zöld csésze a kockás vödör fölött van.,4,1,4.6659
trog_javitott,KOR161,6.0,gramm,A sárga táska a zöld széken van,3,1,5.1256
trog_javitott,KOR161,12.0,gramm,"A sárkány, aki a szekrény mögé bújt, csokit eszik.",4,1,9.9996
trog_javitott,KOR161,0.0,gramm,"A hal kék, de nem pöttyös.",1,1,3.7721
trog_javitott,KOR161,5.0,gramm,"A pöttyös labda nagyobb, mint a csíkos kancsó",2,1,3.8653
trog_javitott,KOR161,12.0,pragm,A malac is felmászott a fára.,1,1,4.5034
trog_javitott,KOR161,8.0,pragm,Néhány alma kigurult a kosárból.,1,1,3.932
trog_javitott,KOR161,10.0,pragm,A fiú már elkészült a homokvárral.,2,1,4.7031
trog_javitott,KOR161,2.0,pragm,A szoba egy rettenetes disznóól.,4,1,4.7334
trog_javitott,KOR161,16.0,pragm,"De ügyes vagy, hogy eltörted a poharat.",1,1,5.125
trog_javitott,KOR161,13.0,pragm,A fiú a békát is megfogta.,4,1,4.1601
trog_javitott,KOR161,5.0,pragm,Julcsi húga nagyon nyuszi volt a mikulásünnepségen.,1,1,4.3991
trog_javitott,KOR161,11.0,pragm,A virágot már kiszínezte a bohóc.,4,1,7.7636
trog_javitott,KOR161,15.0,pragm,Kalapja a libának is van.,3,0,4.7022
trog_javitott,KOR161,3.0,pragm,A hegedűtanár egy sárkány.,2,1,3.9709
trog_javitott,KOR161,4.0,pragm,Pisti egy igazi éjszakai bagoly.,3,1,3.7474
trog_javitott,KOR161,17.0,pragm,"Látom, lustálkodtál egész nap, meg is telt a kosár.",2,1,5.1694
trog_javitott,KOR161,6.0,pragm,A kislánynak van legalább 3 kutyája.,4,1,4.7694
trog_javitott,KOR161,14.0,pragm,Piros lufit minden gyerek kapott.,3,1,8.1177
trog_javitott,KOR161,1.0,pragm,A szarvas a tévét szereli meg.,1,1,4.5791
trog_javitott,KOR161,7.0,pragm,A legtöbb malac kapott kukoricát,2,1,8.0425
trog_javitott,KOR161,9.0,pragm,A festő rajzolt egy házat.,2,1,6.1512
trog_javitott,KOR161,0.0,pragm,A malac locsolja meg a fát.,4,1,5.5811
trog_javitott,FF164,10.0,gramm,"A boszorkány, aki a seprűn lovagol, ellopta a nyakláncot.",3,1,5.2224
trog_javitott,FF164,4.0,gramm,A lány az ágyon ugrál és a macska a szőnyegen fekszik.,2,1,4.1364
trog_javitott,FF164,0.0,gramm,"A hal kék, de nem pöttyös.",1,1,2.5347
trog_javitott,FF164,13.0,gramm,"A könyv azon a tányéron van, ami kék.",2,1,3.4459
trog_javitott,FF164,1.0,gramm,"A zsiráfnak van egy hosszú, kockás, fekete-fehér nyakkendője.",4,1,5.5511
trog_javitott,FF164,14.0,gramm,"A lány azt a macskát kergeti, ami kövér.",2,1,5.5389
trog_javitott,FF164,3.0,gramm,A kecskét a kakas kergeti.,2,1,2.9103
trog_javitott,FF164,9.0,gramm,"A szív, ami a négyzetben van, az pöttyös.",3,1,5.253
trog_javitott,FF164,6.0,gramm,A sárga táska a zöld széken van,3,1,2.938
trog_javitott,FF164,2.0,gramm,A kisfiú palacsintát süt a bohócnak.,1,1,3.8131
trog_javitott,FF164,15.0,gramm,"A felhő, ami előtt a madár van, az lila.",3,0,6.4274
trog_javitott,FF164,5.0,gramm,"A pöttyös labda nagyobb, mint a csíkos kancsó",2,1,5.516
trog_javitott,FF164,17.0,gramm,"A bohóc alszik, de az elefánt nem.",2,1,3.2426
trog_javitott,FF164,16.0,gramm,"A róka, amit a malac kerget, az kicsi.",4,1,4.4087
trog_javitott,FF164,7.0,gramm,A zöld csésze a kockás vödör fölött van.,4,1,4.6388
trog_javitott,FF164,12.0,gramm,"A sárkány, aki a szekrény mögé bújt, csokit eszik.",1,0,4.6015
trog_javitott,FF164,8.0,gramm,"A fiú, aki megpuszilja a lányt, az barna hajú.",4,1,4.5509
trog_javitott,FF164,11.0,gramm,"A kislány, aki a busz elejénél áll, piros szoknyában van.",4,1,6.3828
trog_javitott,FF164,17.0,pragm,"Látom, lustálkodtál egész nap, meg is telt a kosár.",2,1,6.3787
trog_javitott,FF164,10.0,pragm,A fiú már elkészült a homokvárral.,2,1,4.0552
trog_javitott,FF164,2.0,pragm,A szoba egy rettenetes disznóól.,3,0,4.3173
trog_javitott,FF164,16.0,pragm,"De ügyes vagy, hogy eltörted a poharat.",2,0,3.3517
trog_javitott,FF164,12.0,pragm,A malac is felmászott a fára.,1,1,3.1352
trog_javitott,FF164,14.0,pragm,Piros lufit minden gyerek kapott.,3,1,4.076
trog_javitott,FF164,13.0,pragm,A fiú a békát is megfogta.,4,1,3.2805
trog_javitott,FF164,5.0,pragm,Julcsi húga nagyon nyuszi volt a mikulásünnepségen.,1,1,3.4834
trog_javitott,FF164,6.0,pragm,A kislánynak van legalább 3 kutyája.,4,1,4.5655
trog_javitott,FF164,15.0,pragm,Kalapja a libának is van.,1,1,4.0237
trog_javitott,FF164,9.0,pragm,A festő rajzolt egy házat.,2,1,4.59
trog_javitott,FF164,1.0,pragm,A szarvas a tévét szereli meg.,2,0,4.8798
trog_javitott,FF164,7.0,pragm,A legtöbb malac kapott kukoricát,2,1,3.8229
trog_javitott,FF164,4.0,pragm,Pisti egy igazi éjszakai bagoly.,3,1,3.1484
trog_javitott,FF164,0.0,pragm,A malac locsolja meg a fát.,2,0,5.005
trog_javitott,FF164,3.0,pragm,A hegedűtanár egy sárkány.,4,0,3.4158
trog_javitott,FF164,8.0,pragm,Néhány alma kigurult a kosárból.,1,1,4.6243
trog_javitott,FF164,11.0,pragm,A virágot már kiszínezte a bohóc.,4,1,4.3118
trog_javitott,KOR168,9.0,gramm,"A szív, ami a négyzetben van, az pöttyös.",3,1,6.683
trog_javitott,KOR168,12.0,gramm,"A sárkány, aki a szekrény mögé bújt, csokit eszik.",4,1,9.2841
trog_javitott,KOR168,2.0,gramm,A kisfiú palacsintát süt a bohócnak.,1,1,10.7677
trog_javitott,KOR168,16.0,gramm,"A róka, amit a malac kerget, az kicsi.",4,1,17.2283
trog_javitott,KOR168,6.0,gramm,A sárga táska a zöld széken van,3,1,3.4618
trog_javitott,KOR168,5.0,gramm,"A pöttyös labda nagyobb, mint a csíkos kancsó",2,1,5.68
trog_javitott,KOR168,14.0,gramm,"A lány azt a macskát kergeti, ami kövér.",2,1,9.01
trog_javitott,KOR168,4.0,gramm,A lány az ágyon ugrál és a macska a szőnyegen fekszik.,2,1,6.2226
trog_javitott,KOR168,3.0,gramm,A kecskét a kakas kergeti.,2,1,5.0574
trog_javitott,KOR168,10.0,gramm,"A boszorkány, aki a seprűn lovagol, ellopta a nyakláncot.",3,1,5.7335
trog_javitott,KOR168,1.0,gramm,"A zsiráfnak van egy hosszú, kockás, fekete-fehér nyakkendője.",4,1,5.2644
trog_javitott,KOR168,0.0,gramm,"A hal kék, de nem pöttyös.",1,1,3.1917
trog_javitott,KOR168,7.0,gramm,A zöld csésze a kockás vödör fölött van.,4,1,8.9377
trog_javitott,KOR168,15.0,gramm,"A felhő, ami előtt a madár van, az lila.",4,1,8.0702
trog_javitott,KOR168,13.0,gramm,"A könyv azon a tányéron van, ami kék.",2,1,7.7291
trog_javitott,KOR168,17.0,gramm,"A bohóc alszik, de az elefánt nem.",2,1,6.1233
trog_javitott,KOR168,11.0,gramm,"A kislány, aki a busz elejénél áll, piros szoknyában van.",4,1,12.8
trog_javitott,KOR168,8.0,gramm,"A fiú, aki megpuszilja a lányt, az barna hajú.",4,1,7.6798
trog_javitott,KOR168,8.0,pragm,Néhány alma kigurult a kosárból.,1,1,8.8064
trog_javitott,KOR168,3.0,pragm,A hegedűtanár egy sárkány.,4,0,8.7546
trog_javitott,KOR168,12.0,pragm,A malac is felmászott a fára.,1,1,7.0239
trog_javitott,KOR168,9.0,pragm,A festő rajzolt egy házat.,2,1,8.3896
trog_javitott,KOR168,1.0,pragm,A szarvas a tévét szereli meg.,1,1,16.6567
trog_javitott,KOR168,10.0,pragm,A fiú már elkészült a homokvárral.,2,1,22.2172
trog_javitott,KOR168,2.0,pragm,A szoba egy rettenetes disznóól.,4,1,7.9278
trog_javitott,KOR168,7.0,pragm,A legtöbb malac kapott kukoricát,3,0,7.8653
trog_javitott,KOR168,11.0,pragm,A virágot már kiszínezte a bohóc.,4,1,14.7051
trog_javitott,KOR168,4.0,pragm,Pisti egy igazi éjszakai bagoly.,3,1,4.3336
trog_javitott,KOR168,17.0,pragm,"Látom, lustálkodtál egész nap, meg is telt a kosár.",2,1,21.0275
trog_javitott,KOR168,13.0,pragm,A fiú a békát is megfogta.,4,1,6.303
trog_javitott,KOR168,16.0,pragm,"De ügyes vagy, hogy eltörted a poharat.",1,1,15.0976
trog_javitott,KOR168,15.0,pragm,Kalapja a libának is van.,1,1,17.0964
trog_javitott,KOR168,6.0,pragm,A kislánynak van legalább 3 kutyája.,4,1,13.6145
trog_javitott,KOR168,0.0,pragm,A malac locsolja meg a fát.,1,0,7.6942
trog_javitott,KOR168,5.0,pragm,Julcsi húga nagyon nyuszi volt a mikulásünnepségen.,1,1,6.6244
trog_javitott,KOR168,14.0,pragm,Piros lufit minden gyerek kapott.,2,0,8.1115
trog_javitott,KOR175,0.0,gramm,"A hal kék, de nem pöttyös.",1,1,5.8824
trog_javitott,KOR175,16.0,gramm,"A róka, amit a malac kerget, az kicsi.",4,1,17.854
trog_javitott,KOR175,15.0,gramm,"A felhő, ami előtt a madár van, az lila.",3,0,17.2963
trog_javitott,KOR175,17.0,gramm,"A bohóc alszik, de az elefánt nem.",2,1,8.119
trog_javitott,KOR175,7.0,gramm,A zöld csésze a kockás vödör fölött van.,4,1,9.5628
trog_javitott,KOR175,5.0,gramm,"A pöttyös labda nagyobb, mint a csíkos kancsó",2,1,5.4428
trog_javitott,KOR175,12.0,gramm,"A sárkány, aki a szekrény mögé bújt, csokit eszik.",4,1,10.6027
trog_javitott,KOR175,10.0,gramm,"A boszorkány, aki a seprűn lovagol, ellopta a nyakláncot.",3,1,11.4913
trog_javitott,KOR175,6.0,gramm,A sárga táska a zöld széken van,3,1,6.6025
trog_javitott,KOR175,2.0,gramm,A kisfiú palacsintát süt a bohócnak.,1,1,8.9741
trog_javitott,KOR175,13.0,gramm,"A könyv azon a tányéron van, ami kék.",2,1,8.3521
trog_javitott,KOR175,1.0,gramm,"A zsiráfnak van egy hosszú, kockás, fekete-fehér nyakkendője.",4,1,6.8964
trog_javitott,KOR175,9.0,gramm,"A szív, ami a négyzetben van, az pöttyös.",3,1,6.7022
trog_javitott,KOR175,14.0,gramm,"A lány azt a macskát kergeti, ami kövér.",2,1,11.018
trog_javitott,KOR175,8.0,gramm,"A fiú, aki megpuszilja a lányt, az barna hajú.",4,1,15.7335
trog_javitott,KOR175,3.0,gramm,A kecskét a kakas kergeti.,2,1,10.0573
trog_javitott,KOR175,4.0,gramm,A lány az ágyon ugrál és a macska a szőnyegen fekszik.,2,1,7.0721
trog_javitott,KOR175,11.0,gramm,"A kislány, aki a busz elejénél áll, piros szoknyában van.",4,1,9.8453
trog_javitott,KOR175,15.0,pragm,Kalapja a libának is van.,1,1,27.0433
trog_javitott,KOR175,14.0,pragm,Piros lufit minden gyerek kapott.,3,1,31.256
trog_javitott,KOR175,7.0,pragm,A legtöbb malac kapott kukoricát,3,0,12.5599
trog_javitott,KOR175,11.0,pragm,A virágot már kiszínezte a bohóc.,4,1,33.5848
trog_javitott,KOR175,17.0,pragm,"Látom, lustálkodtál egész nap, meg is telt a kosár.",4,0,34.71
trog_javitott,KOR175,4.0,pragm,Pisti egy igazi éjszakai bagoly.,3,1,10.6488
trog_javitott,KOR175,16.0,pragm,"De ügyes vagy, hogy eltörted a poharat.",2,0,28.0441
trog_javitott,KOR175,2.0,pragm,A szoba egy rettenetes disznóól.,4,1,10.21
trog_javitott,KOR175,5.0,pragm,Julcsi húga nagyon nyuszi volt a mikulásünnepségen.,1,1,17.4121
trog_javitott,KOR175,8.0,pragm,Néhány alma kigurult a kosárból.,1,1,12.4211
trog_javitott,KOR175,10.0,pragm,A fiú már elkészült a homokvárral.,2,1,22.611
trog_javitott,KOR175,3.0,pragm,A hegedűtanár egy sárkány.,3,0,11.8547
trog_javitott,KOR175,6.0,pragm,A kislánynak van legalább 3 kutyája.,2,0,15.5916
trog_javitott,KOR175,9.0,pragm,A festő rajzolt egy házat.,2,1,18.9623
trog_javitott,KOR175,0.0,pragm,A malac locsolja meg a fát.,4,1,11.2491
trog_javitott,KOR175,1.0,pragm,A szarvas a tévét szereli meg.,1,1,18.054
trog_javitott,KOR175,13.0,pragm,A fiú a békát is megfogta.,4,1,8.7463
trog_javitott,KOR175,12.0,pragm,A malac is felmászott a fára.,1,1,7.1521
trog_javitott,KOR177,8.0,gramm,"A fiú, aki megpuszilja a lányt, az barna hajú.",4,1,11.2878
trog_javitott,KOR177,13.0,gramm,"A könyv azon a tányéron van, ami kék.",1,0,24.5656
trog_javitott,KOR177,9.0,gramm,"A szív, ami a négyzetben van, az pöttyös.",1,0,47.2417
trog_javitott,KOR177,10.0,gramm,"A boszorkány, aki a seprűn lovagol, ellopta a nyakláncot.",3,1,12.4309
trog_javitott,KOR177,6.0,gramm,A sárga táska a zöld széken van,3,1,4.114
trog_javitott,KOR177,12.0,gramm,"A sárkány, aki a szekrény mögé bújt, csokit eszik.",4,1,6.5938
trog_javitott,KOR177,2.0,gramm,A kisfiú palacsintát süt a bohócnak.,2,0,7.3073
trog_javitott,KOR177,7.0,gramm,A zöld csésze a kockás vödör fölött van.,4,1,6.4926
trog_javitott,KOR177,17.0,gramm,"A bohóc alszik, de az elefánt nem.",2,1,6.1794
trog_javitott,KOR177,15.0,gramm,"A felhő, ami előtt a madár van, az lila.",1,0,6.5313
trog_javitott,KOR177,16.0,gramm,"A róka, amit a malac kerget, az kicsi.",4,1,6.0905
trog_javitott,KOR177,5.0,gramm,"A pöttyös labda nagyobb, mint a csíkos kancsó",2,1,7.4907
trog_javitott,KOR177,4.0,gramm,A lány az ágyon ugrál és a macska a szőnyegen fekszik.,2,1,6.3855
trog_javitott,KOR177,0.0,gramm,"A hal kék, de nem pöttyös.",1,1,3.9351
trog_javitott,KOR177,3.0,gramm,A kecskét a kakas kergeti.,2,1,4.3717
trog_javitott,KOR177,11.0,gramm,"A kislány, aki a busz elejénél áll, piros szoknyában van.",4,1,5.9703
trog_javitott,KOR177,14.0,gramm,"A lány azt a macskát kergeti, ami kövér.",2,1,11.2389
trog_javitott,KOR177,1.0,gramm,"A zsiráfnak van egy hosszú, kockás, fekete-fehér nyakkendője.",4,1,5.5361
trog_javitott,KOR177,10.0,pragm,A fiú már elkészült a homokvárral.,2,1,12.6115
trog_javitott,KOR177,11.0,pragm,A virágot már kiszínezte a bohóc.,4,1,11.5669
trog_javitott,KOR177,4.0,pragm,Pisti egy igazi éjszakai bagoly.,3,1,7.0489
trog_javitott,KOR177,0.0,pragm,A malac locsolja meg a fát.,1,0,9.3566
trog_javitott,KOR177,6.0,pragm,A kislánynak van legalább 3 kutyája.,2,0,6.6954
trog_javitott,KOR177,3.0,pragm,A hegedűtanár egy sárkány.,4,0,8.8683
trog_javitott,KOR177,2.0,pragm,A szoba egy rettenetes disznóól.,4,1,6.7339
trog_javitott,KOR177,12.0,pragm,A malac is felmászott a fára.,1,1,5.5035
trog_javitott,KOR177,16.0,pragm,"De ügyes vagy, hogy eltörted a poharat.",2,0,9.2819
trog_javitott,KOR177,14.0,pragm,Piros lufit minden gyerek kapott.,2,0,13.3954
trog_javitott,KOR177,8.0,pragm,Néhány alma kigurult a kosárból.,1,1,5.2982
trog_javitott,KOR177,15.0,pragm,Kalapja a libának is van.,1,1,6.6137
trog_javitott,KOR177,17.0,pragm,"Látom, lustálkodtál egész nap, meg is telt a kosár.",1,0,14.1834
trog_javitott,KOR177,13.0,pragm,A fiú a békát is megfogta.,4,1,8.7001
trog_javitott,KOR177,1.0,pragm,A szarvas a tévét szereli meg.,4,0,8.2839
trog_javitott,KOR177,7.0,pragm,A legtöbb malac kapott kukoricát,4,0,7.7466
trog_javitott,KOR177,5.0,pragm,Julcsi húga nagyon nyuszi volt a mikulásünnepségen.,4,0,7.7469
trog_javitott,KOR177,9.0,pragm,A festő rajzolt egy házat.,2,1,9.2798
trog_javitott,FF207,17.0,gramm,"A bohóc alszik, de az elefánt nem.",2,1,3.1894
trog_javitott,FF207,7.0,gramm,A zöld csésze a kockás vödör fölött van.,4,1,5.8368
trog_javitott,FF207,1.0,gramm,"A zsiráfnak van egy hosszú, kockás, fekete-fehér nyakkendője.",4,1,4.8763
trog_javitott,FF207,11.0,gramm,"A kislány, aki a busz elejénél áll, piros szoknyában van.",4,1,6.6159
trog_javitott,FF207,2.0,gramm,A kisfiú palacsintát süt a bohócnak.,1,1,4.8436
trog_javitott,FF207,12.0,gramm,"A sárkány, aki a szekrény mögé bújt, csokit eszik.",4,1,7.4196
trog_javitott,FF207,8.0,gramm,"A fiú, aki megpuszilja a lányt, az barna hajú.",4,1,3.6771
trog_javitott,FF207,10.0,gramm,"A boszorkány, aki a seprűn lovagol, ellopta a nyakláncot.",1,0,3.8965
trog_javitott,FF207,6.0,gramm,A sárga táska a zöld széken van,3,1,4.0784
trog_javitott,FF207,0.0,gramm,"A hal kék, de nem pöttyös.",1,1,2.5108
trog_javitott,FF207,16.0,gramm,"A róka, amit a malac kerget, az kicsi.",4,1,4.0214
trog_javitott,FF207,15.0,gramm,"A felhő, ami előtt a madár van, az lila.",4,1,3.8202
trog_javitott,FF207,3.0,gramm,A kecskét a kakas kergeti.,2,1,3.1525
trog_javitott,FF207,13.0,gramm,"A könyv azon a tányéron van, ami kék.",2,1,3.2334
trog_javitott,FF207,14.0,gramm,"A lány azt a macskát kergeti, ami kövér.",2,1,3.6578
trog_javitott,FF207,5.0,gramm,"A pöttyös labda nagyobb, mint a csíkos kancsó",2,1,2.5531
trog_javitott,FF207,4.0,gramm,A lány az ágyon ugrál és a macska a szőnyegen fekszik.,2,1,5.316
trog_javitott,FF207,9.0,gramm,"A szív, ami a négyzetben van, az pöttyös.",3,1,7.2204
trog_javitott,FF207,5.0,pragm,Julcsi húga nagyon nyuszi volt a mikulásünnepségen.,1,1,12.2682
trog_javitott,FF207,8.0,pragm,Néhány alma kigurult a kosárból.,1,1,6.9828
trog_javitott,FF207,13.0,pragm,A fiú a békát is megfogta.,4,1,7.2697
trog_javitott,FF207,4.0,pragm,Pisti egy igazi éjszakai bagoly.,1,0,20.9311
trog_javitott,FF207,16.0,pragm,"De ügyes vagy, hogy eltörted a poharat.",1,1,7.0664
trog_javitott,FF207,15.0,pragm,Kalapja a libának is van.,1,1,7.9901
trog_javitott,FF207,10.0,pragm,A fiú már elkészült a homokvárral.,3,0,14.4634
trog_javitott,FF207,2.0,pragm,A szoba egy rettenetes disznóól.,4,1,4.7894
trog_javitott,FF207,9.0,pragm,A festő rajzolt egy házat.,2,1,4.4078
trog_javitott,FF207,14.0,pragm,Piros lufit minden gyerek kapott.,3,1,10.1223
trog_javitott,FF207,1.0,pragm,A szarvas a tévét szereli meg.,1,1,7.0867
trog_javitott,FF207,7.0,pragm,A legtöbb malac kapott kukoricát,2,1,5.9793
trog_javitott,FF207,17.0,pragm,"Látom, lustálkodtál egész nap, meg is telt a kosár.",2,1,10.0502
trog_javitott,FF207,3.0,pragm,A hegedűtanár egy sárkány.,2,1,7.8614
trog_javitott,FF207,12.0,pragm,A malac is felmászott a fára.,1,1,3.1922
trog_javitott,FF207,0.0,pragm,A malac locsolja meg a fát.,4,1,4.0811
trog_javitott,FF207,11.0,pragm,A virágot már kiszínezte a bohóc.,4,1,6.1687
trog_javitott,FF207,6.0,pragm,A kislánynak van legalább 3 kutyája.,2,0,7.0261
trog_javitott,FF205,8.0,gramm,"A fiú, aki megpuszilja a lányt, az barna hajú.",4,1,4.4955
trog_javitott,FF205,3.0,gramm,A kecskét a kakas kergeti.,2,1,3.8948
trog_javitott,FF205,16.0,gramm,"A róka, amit a malac kerget, az kicsi.",4,1,4.0459
trog_javitott,FF205,12.0,gramm,"A sárkány, aki a szekrény mögé bújt, csokit eszik.",4,1,8.1114
trog_javitott,FF205,5.0,gramm,"A pöttyös labda nagyobb, mint a csíkos kancsó",2,1,5.7627
trog_javitott,FF205,14.0,gramm,"A lány azt a macskát kergeti, ami kövér.",2,1,7.1481
trog_javitott,FF205,6.0,gramm,A sárga táska a zöld széken van,3,1,4.8624
trog_javitott,FF205,10.0,gramm,"A boszorkány, aki a seprűn lovagol, ellopta a nyakláncot.",3,1,6.3594
trog_javitott,FF205,9.0,gramm,"A szív, ami a négyzetben van, az pöttyös.",3,1,4.3915
trog_javitott,FF205,1.0,gramm,"A zsiráfnak van egy hosszú, kockás, fekete-fehér nyakkendője.",4,1,5.0875
trog_javitott,FF205,13.0,gramm,"A könyv azon a tányéron van, ami kék.",2,1,9.5479
trog_javitott,FF205,7.0,gramm,A zöld csésze a kockás vödör fölött van.,4,1,4.5029
trog_javitott,FF205,2.0,gramm,A kisfiú palacsintát süt a bohócnak.,1,1,5.0306
trog_javitott,FF205,11.0,gramm,"A kislány, aki a busz elejénél áll, piros szoknyában van.",4,1,5.7901
trog_javitott,FF205,4.0,gramm,A lány az ágyon ugrál és a macska a szőnyegen fekszik.,2,1,4.5281
trog_javitott,FF205,0.0,gramm,"A hal kék, de nem pöttyös.",1,1,3.4218
trog_javitott,FF205,17.0,gramm,"A bohóc alszik, de az elefánt nem.",2,1,6.1824
trog_javitott,FF205,15.0,gramm,"A felhő, ami előtt a madár van, az lila.",4,1,6.2176
trog_javitott,FF205,4.0,pragm,Pisti egy igazi éjszakai bagoly.,3,1,9.9462
trog_javitott,FF205,10.0,pragm,A fiú már elkészült a homokvárral.,2,1,5.2019
trog_javitott,FF205,9.0,pragm,A festő rajzolt egy házat.,2,1,14.1078
trog_javitott,FF205,8.0,pragm,Néhány alma kigurult a kosárból.,1,1,5.1343
trog_javitott,FF205,1.0,pragm,A szarvas a tévét szereli meg.,1,1,11.2477
trog_javitott,FF205,3.0,pragm,A hegedűtanár egy sárkány.,2,1,5.2838
trog_javitott,FF205,11.0,pragm,A virágot már kiszínezte a bohóc.,4,1,11.8598
trog_javitott,FF205,14.0,pragm,Piros lufit minden gyerek kapott.,3,1,18.5201
trog_javitott,FF205,15.0,pragm,Kalapja a libának is van.,1,1,7.7071
trog_javitott,FF205,12.0,pragm,A malac is felmászott a fára.,1,1,3.2891
trog_javitott,FF205,6.0,pragm,A kislánynak van legalább 3 kutyája.,3,0,12.1824
trog_javitott,FF205,0.0,pragm,A malac locsolja meg a fát.,4,1,10.1621
trog_javitott,FF205,16.0,pragm,"De ügyes vagy, hogy eltörted a poharat.",1,1,9.3921
trog_javitott,FF205,5.0,pragm,Julcsi húga nagyon nyuszi volt a mikulásünnepségen.,1,1,4.7354
trog_javitott,FF205,2.0,pragm,A szoba egy rettenetes disznóól.,4,1,6.161
trog_javitott,FF205,7.0,pragm,A legtöbb malac kapott kukoricát,2,1,7.9894
trog_javitott,FF205,13.0,pragm,A fiú a békát is megfogta.,4,1,13.1788
trog_javitott,FF205,17.0,pragm,"Látom, lustálkodtál egész nap, meg is telt a kosár.",2,1,8.6844
trog_javitott,BL185,1.0,gramm,"A zsiráfnak van egy hosszú, kockás, fekete-fehér nyakkendője.",4,1,5.214
trog_javitott,BL185,2.0,gramm,A kisfiú palacsintát süt a bohócnak.,1,1,4.476
trog_javitott,BL185,11.0,gramm,"A kislány, aki a busz elejénél áll, piros szoknyában van.",4,1,5.291
trog_javitott,BL185,3.0,gramm,A kecskét a kakas kergeti.,2,1,5.358
trog_javitott,BL185,13.0,gramm,"A könyv azon a tányéron van, ami kék.",2,1,4.489
trog_javitott,BL185,10.0,gramm,"A boszorkány, aki a seprűn lovagol, ellopta a nyakláncot.",3,1,4.887
trog_javitott,BL185,12.0,gramm,"A sárkány, aki a szekrény mögé bújt, csokit eszik.",4,1,5.371
trog_javitott,BL185,17.0,gramm,"A bohóc alszik, de az elefánt nem.",2,1,4.443
trog_javitott,BL185,4.0,gramm,A lány az ágyon ugrál és a macska a szőnyegen fekszik.,2,1,3.918
trog_javitott,BL185,9.0,gramm,"A szív, ami a négyzetben van, az pöttyös.",3,1,4.623
trog_javitott,BL185,8.0,gramm,"A fiú, aki megpuszilja a lányt, az barna hajú.",4,1,3.569
trog_javitott,BL185,15.0,gramm,"A felhő, ami előtt a madár van, az lila.",4,1,5.668
trog_javitott,BL185,7.0,gramm,A zöld csésze a kockás vödör fölött van.,4,1,4.489
trog_javitott,BL185,14.0,gramm,"A lány azt a macskát kergeti, ami kövér.",2,1,4.489
trog_javitott,BL185,0.0,gramm,"A hal kék, de nem pöttyös.",1,1,4.111
trog_javitott,BL185,5.0,gramm,"A pöttyös labda nagyobb, mint a csíkos kancsó",2,1,4.797
trog_javitott,BL185,16.0,gramm,"A róka, amit a malac kerget, az kicsi.",4,1,4.218
trog_javitott,BL185,6.0,gramm,A sárga táska a zöld széken van,3,1,3.239
trog_javitott,BL185,13.0,pragm,A fiú a békát is megfogta.,4,1,7.832
trog_javitott,BL185,6.0,pragm,A kislánynak van legalább 3 kutyája.,4,1,9.516
trog_javitott,BL185,15.0,pragm,Kalapja a libának is van.,3,0,10.532
trog_javitott,BL185,10.0,pragm,A fiú már elkészült a homokvárral.,2,1,11.44
trog_javitott,BL185,4.0,pragm,Pisti egy igazi éjszakai bagoly.,3,1,5.628
trog_javitott,BL185,14.0,pragm,Piros lufit minden gyerek kapott.,3,1,8.981
trog_javitott,BL185,5.0,pragm,Julcsi húga nagyon nyuszi volt a mikulásünnepségen.,1,1,8.253
trog_javitott,BL185,11.0,pragm,A virágot már kiszínezte a bohóc.,4,1,9.51
trog_javitott,BL185,3.0,pragm,A hegedűtanár egy sárkány.,2,1,8.876
trog_javitott,BL185,12.0,pragm,A malac is felmászott a fára.,1,1,5.542
trog_javitott,BL185,2.0,pragm,A szoba egy rettenetes disznóól.,4,1,7.976
trog_javitott,BL185,16.0,pragm,"De ügyes vagy, hogy eltörted a poharat.",1,1,7.898
trog_javitott,BL185,0.0,pragm,A malac locsolja meg a fát.,4,1,6.958
trog_javitott,BL185,9.0,pragm,A festő rajzolt egy házat.,2,1,7.886
trog_javitott,BL185,7.0,pragm,A legtöbb malac kapott kukoricát,3,0,7.572
trog_javitott,BL185,1.0,pragm,A szarvas a tévét szereli meg.,1,1,6.509
trog_javitott,BL185,17.0,pragm,"Látom, lustálkodtál egész nap, meg is telt a kosár.",2,1,9.534
trog_javitott,BL185,8.0,pragm,Néhány alma kigurult a kosárból.,1,1,5.234
trog_javitott,FF152,3.0,gramm,A kecskét a kakas kergeti.,2,1,2.4732
trog_javitott,FF152,15.0,gramm,"A felhő, ami előtt a madár van, az lila.",4,1,4.0732
trog_javitott,FF152,4.0,gramm,A lány az ágyon ugrál és a macska a szőnyegen fekszik.,2,1,3.8574
trog_javitott,FF152,5.0,gramm,"A pöttyös labda nagyobb, mint a csíkos kancsó",2,1,2.8655
trog_javitott,FF152,1.0,gramm,"A zsiráfnak van egy hosszú, kockás, fekete-fehér nyakkendője.",4,1,3.63
trog_javitott,FF152,0.0,gramm,"A hal kék, de nem pöttyös.",1,1,2.7922
trog_javitott,FF152,12.0,gramm,"A sárkány, aki a szekrény mögé bújt, csokit eszik.",2,0,5.5853
trog_javitott,FF152,10.0,gramm,"A boszorkány, aki a seprűn lovagol, ellopta a nyakláncot.",3,1,4.2397
trog_javitott,FF152,17.0,gramm,"A bohóc alszik, de az elefánt nem.",2,1,3.6192
trog_javitott,FF152,13.0,gramm,"A könyv azon a tányéron van, ami kék.",2,1,3.6722
trog_javitott,FF152,16.0,gramm,"A róka, amit a malac kerget, az kicsi.",4,1,5.2663
trog_javitott,FF152,9.0,gramm,"A szív, ami a négyzetben van, az pöttyös.",3,1,3.8309
trog_javitott,FF152,6.0,gramm,A sárga táska a zöld széken van,3,1,4.6084
trog_javitott,FF152,2.0,gramm,A kisfiú palacsintát süt a bohócnak.,1,1,3.289
trog_javitott,FF152,11.0,gramm,"A kislány, aki a busz elejénél áll, piros szoknyában van.",4,1,3.7266
trog_javitott,FF152,7.0,gramm,A zöld csésze a kockás vödör fölött van.,4,1,3.7574
trog_javitott,FF152,8.0,gramm,"A fiú, aki megpuszilja a lányt, az barna hajú.",4,1,3.0577
trog_javitott,FF152,14.0,gramm,"A lány azt a macskát kergeti, ami kövér.",2,1,3.4875
trog_javitott,FF152,17.0,pragm,"Látom, lustálkodtál egész nap, meg is telt a kosár.",3,0,5.7226
trog_javitott,FF152,5.0,pragm,Julcsi húga nagyon nyuszi volt a mikulásünnepségen.,1,1,4.3773
trog_javitott,FF152,8.0,pragm,Néhány alma kigurult a kosárból.,1,1,3.4636
trog_javitott,FF152,13.0,pragm,A fiú a békát is megfogta.,4,1,4.0984
trog_javitott,FF152,4.0,pragm,Pisti egy igazi éjszakai bagoly.,3,1,3.0893
trog_javitott,FF152,0.0,pragm,A malac locsolja meg a fát.,4,1,3.1878
trog_javitott,FF152,12.0,pragm,A malac is felmászott a fára.,1,1,2.2545
trog_javitott,FF152,14.0,pragm,Piros lufit minden gyerek kapott.,2,0,4.6931
trog_javitott,FF152,15.0,pragm,Kalapja a libának is van.,2,0,2.8941
trog_javitott,FF152,7.0,pragm,A legtöbb malac kapott kukoricát,2,1,3.9104
trog_javitott,FF152,1.0,pragm,A szarvas a tévét szereli meg.,2,0,3.1234
trog_javitott,FF152,3.0,pragm,A hegedűtanár egy sárkány.,2,1,2.5205
trog_javitott,FF152,10.0,pragm,A fiú már elkészült a homokvárral.,1,0,4.0567
trog_javitott,FF152,11.0,pragm,A virágot már kiszínezte a bohóc.,4,1,3.834
trog_javitott,FF152,2.0,pragm,A szoba egy rettenetes disznóól.,4,1,2.9113
trog_javitott,FF152,16.0,pragm,"De ügyes vagy, hogy eltörted a poharat.",2,0,3.579
trog_javitott,FF152,9.0,pragm,A festő rajzolt egy házat.,2,1,3.6498
trog_javitott,FF152,6.0,pragm,A kislánynak van legalább 3 kutyája.,3,0,3.8687
trog_javitott,BL165,3.0,gramm,A kecskét a kakas kergeti.,2,1,4.2424
trog_javitott,BL165,1.0,gramm,"A zsiráfnak van egy hosszú, kockás, fekete-fehér nyakkendője.",4,1,4.4283
trog_javitott,BL165,10.0,gramm,"A boszorkány, aki a seprűn lovagol, ellopta a nyakláncot.",3,1,5.5346
trog_javitott,BL165,17.0,gramm,"A bohóc alszik, de az elefánt nem.",2,1,4.6027
trog_javitott,BL165,14.0,gramm,"A lány azt a macskát kergeti, ami kövér.",2,1,4.0085
trog_javitott,BL165,9.0,gramm,"A szív, ami a négyzetben van, az pöttyös.",3,1,3.8686
trog_javitott,BL165,2.0,gramm,A kisfiú palacsintát süt a bohócnak.,1,1,3.9143
trog_javitott,BL165,7.0,gramm,A zöld csésze a kockás vödör fölött van.,4,1,4.7207
trog_javitott,BL165,16.0,gramm,"A róka, amit a malac kerget, az kicsi.",4,1,4.6993
trog_javitott,BL165,6.0,gramm,A sárga táska a zöld széken van,3,1,3.2174
trog_javitott,BL165,5.0,gramm,"A pöttyös labda nagyobb, mint a csíkos kancsó",2,1,3.4831
trog_javitott,BL165,11.0,gramm,"A kislány, aki a busz elejénél áll, piros szoknyában van.",4,1,4.75
trog_javitott,BL165,13.0,gramm,"A könyv azon a tányéron van, ami kék.",2,1,3.6606
trog_javitott,BL165,15.0,gramm,"A felhő, ami előtt a madár van, az lila.",4,1,7.0231
trog_javitott,BL165,12.0,gramm,"A sárkány, aki a szekrény mögé bújt, csokit eszik.",4,1,11.1261
trog_javitott,BL165,8.0,gramm,"A fiú, aki megpuszilja a lányt, az barna hajú.",4,1,4.8895
trog_javitott,BL165,4.0,gramm,A lány az ágyon ugrál és a macska a szőnyegen fekszik.,2,1,3.8309
trog_javitott,BL165,0.0,gramm,"A hal kék, de nem pöttyös.",1,1,2.8559
trog_javitott,BL165,8.0,pragm,Néhány alma kigurult a kosárból.,1,1,6.7905
trog_javitott,BL165,3.0,pragm,A hegedűtanár egy sárkány.,2,1,6.5388
trog_javitott,BL165,2.0,pragm,A szoba egy rettenetes disznóól.,4,1,4.8237
trog_javitott,BL165,12.0,pragm,A malac is felmászott a fára.,1,1,5.4342
trog_javitott,BL165,6.0,pragm,A kislánynak van legalább 3 kutyája.,4,1,6.6274
trog_javitott,BL165,1.0,pragm,A szarvas a tévét szereli meg.,1,1,5.1766
trog_javitott,BL165,10.0,pragm,A fiú már elkészült a homokvárral.,2,1,11.5566
trog_javitott,BL165,17.0,pragm,"Látom, lustálkodtál egész nap, meg is telt a kosár.",4,0,16.8805
trog_javitott,BL165,15.0,pragm,Kalapja a libának is van.,1,1,6.164
trog_javitott,BL165,0.0,pragm,A malac locsolja meg a fát.,4,1,6.8606
trog_javitott,BL165,11.0,pragm,A virágot már kiszínezte a bohóc.,4,1,6.9334
trog_javitott,BL165,5.0,pragm,Julcsi húga nagyon nyuszi volt a mikulásünnepségen.,1,1,5.9328
trog_javitott,BL165,7.0,pragm,A legtöbb malac kapott kukoricát,2,1,5.8817
trog_javitott,BL165,14.0,pragm,Piros lufit minden gyerek kapott.,3,1,12.4892
trog_javitott,BL165,16.0,pragm,"De ügyes vagy, hogy eltörted a poharat.",1,1,6.7797
trog_javitott,BL165,9.0,pragm,A festő rajzolt egy házat.,2,1,4.768
trog_javitott,BL165,4.0,pragm,Pisti egy igazi éjszakai bagoly.,3,1,3.4264
trog_javitott,BL165,13.0,pragm,A fiú a békát is megfogta.,3,0,5.9704
trog_javitott,FF126,3.0,gramm,A kecskét a kakas kergeti.,2,1,3.9904
trog_javitott,FF126,4.0,gramm,A lány az ágyon ugrál és a macska a szőnyegen fekszik.,2,1,4.5775
trog_javitott,FF126,17.0,gramm,"A bohóc alszik, de az elefánt nem.",2,1,5.42
trog_javitott,FF126,2.0,gramm,A kisfiú palacsintát süt a bohócnak.,1,1,3.7797
trog_javitott,FF126,16.0,gramm,"A róka, amit a malac kerget, az kicsi.",4,1,4.3307
trog_javitott,FF126,15.0,gramm,"A felhő, ami előtt a madár van, az lila.",4,1,5.3724
trog_javitott,FF126,1.0,gramm,"A zsiráfnak van egy hosszú, kockás, fekete-fehér nyakkendője.",4,1,5.5736
trog_javitott,FF126,13.0,gramm,"A könyv azon a tányéron van, ami kék.",2,1,4.6909
trog_javitott,FF126,5.0,gramm,"A pöttyös labda nagyobb, mint a csíkos kancsó",2,1,4.8946
trog_javitott,FF126,10.0,gramm,"A boszorkány, aki a seprűn lovagol, ellopta a nyakláncot.",3,1,4.7868
trog_javitott,FF126,0.0,gramm,"A hal kék, de nem pöttyös.",1,1,3.3302
trog_javitott,FF126,11.0,gramm,"A kislány, aki a busz elejénél áll, piros szoknyában van.",4,1,4.7692
trog_javitott,FF126,6.0,gramm,A sárga táska a zöld széken van,3,1,3.3405
trog_javitott,FF126,14.0,gramm,"A lány azt a macskát kergeti, ami kövér.",2,1,4.053
trog_javitott,FF126,9.0,gramm,"A szív, ami a négyzetben van, az pöttyös.",3,1,4.0355
trog_javitott,FF126,7.0,gramm,A zöld csésze a kockás vödör fölött van.,4,1,3.8345
trog_javitott,FF126,8.0,gramm,"A fiú, aki megpuszilja a lányt, az barna hajú.",4,1,4.159
trog_javitott,FF126,12.0,gramm,"A sárkány, aki a szekrény mögé bújt, csokit eszik.",4,1,4.8299
trog_javitott,FF126,4.0,pragm,Pisti egy igazi éjszakai bagoly.,3,1,5.494
trog_javitott,FF126,3.0,pragm,A hegedűtanár egy sárkány.,4,0,3.9189
trog_javitott,FF126,2.0,pragm,A szoba egy rettenetes disznóól.,4,1,5.5485
trog_javitott,FF126,7.0,pragm,A legtöbb malac kapott kukoricát,2,1,4.969
trog_javitott,FF126,10.0,pragm,A fiú már elkészült a homokvárral.,2,1,6.8088
trog_javitott,FF126,1.0,pragm,A szarvas a tévét szereli meg.,1,1,5.6027
trog_javitott,FF126,11.0,pragm,A virágot már kiszínezte a bohóc.,4,1,5.4793
trog_javitott,FF126,17.0,pragm,"Látom, lustálkodtál egész nap, meg is telt a kosár.",4,0,10.066
trog_javitott,FF126,15.0,pragm,Kalapja a libának is van.,1,1,6.0288
trog_javitott,FF126,6.0,pragm,A kislánynak van legalább 3 kutyája.,4,1,7.9797
trog_javitott,FF126,5.0,pragm,Julcsi húga nagyon nyuszi volt a mikulásünnepségen.,1,1,4.8219
trog_javitott,FF126,8.0,pragm,Néhány alma kigurult a kosárból.,1,1,4.5744
trog_javitott,FF126,13.0,pragm,A fiú a békát is megfogta.,4,1,8.6145
trog_javitott,FF126,0.0,pragm,A malac locsolja meg a fát.,4,1,4.3711
trog_javitott,FF126,16.0,pragm,"De ügyes vagy, hogy eltörted a poharat.",1,1,5.1062
trog_javitott,FF126,9.0,pragm,A festő rajzolt egy házat.,2,1,5.0767
trog_javitott,FF126,14.0,pragm,Piros lufit minden gyerek kapott.,3,1,4.6318
trog_javitott,FF126,12.0,pragm,A malac is felmászott a fára.,1,1,3.9954
trog_javitott,FF141,12.0,gramm,"A sárkány, aki a szekrény mögé bújt, csokit eszik.",4,1,6.803
trog_javitott,FF141,6.0,gramm,A sárga táska a zöld széken van,4,0,4.3964
trog_javitott,FF141,4.0,gramm,A lány az ágyon ugrál és a macska a szőnyegen fekszik.,2,1,4.8559
trog_javitott,FF141,10.0,gramm,"A boszorkány, aki a seprűn lovagol, ellopta a nyakláncot.",3,1,4.9641
trog_javitott,FF141,0.0,gramm,"A hal kék, de nem pöttyös.",1,1,2.924
trog_javitott,FF141,17.0,gramm,"A bohóc alszik, de az elefánt nem.",2,1,4.4937
trog_javitott,FF141,11.0,gramm,"A kislány, aki a busz elejénél áll, piros szoknyában van.",3,0,3.9881
trog_javitott,FF141,14.0,gramm,"A lány azt a macskát kergeti, ami kövér.",2,1,6.8608
trog_javitott,FF141,7.0,gramm,A zöld csésze a kockás vödör fölött van.,4,1,5.2836
trog_javitott,FF141,8.0,gramm,"A fiú, aki megpuszilja a lányt, az barna hajú.",4,1,4.1384
trog_javitott,FF141,2.0,gramm,A kisfiú palacsintát süt a bohócnak.,1,1,3.7085
trog_javitott,FF141,13.0,gramm,"A könyv azon a tányéron van, ami kék.",2,1,6.6149
trog_javitott,FF141,5.0,gramm,"A pöttyös labda nagyobb, mint a csíkos kancsó",4,0,3.8518
trog_javitott,FF141,15.0,gramm,"A felhő, ami előtt a madár van, az lila.",4,1,5.2943
trog_javitott,FF141,9.0,gramm,"A szív, ami a négyzetben van, az pöttyös.",3,1,7.1361
trog_javitott,FF141,16.0,gramm,"A róka, amit a malac kerget, az kicsi.",4,1,5.6191
trog_javitott,FF141,1.0,gramm,"A zsiráfnak van egy hosszú, kockás, fekete-fehér nyakkendője.",4,1,4.7532
trog_javitott,FF141,3.0,gramm,A kecskét a kakas kergeti.,2,1,2.9822
trog_javitott,FF141,12.0,pragm,A malac is felmászott a fára.,1,1,12.1893
trog_javitott,FF141,13.0,pragm,A fiú a békát is megfogta.,4,1,4.4649
trog_javitott,FF141,2.0,pragm,A szoba egy rettenetes disznóól.,4,1,6.2836
trog_javitott,FF141,14.0,pragm,Piros lufit minden gyerek kapott.,3,1,4.0706
trog_javitott,FF141,5.0,pragm,Julcsi húga nagyon nyuszi volt a mikulásünnepségen.,1,1,5.7179
trog_javitott,FF141,9.0,pragm,A festő rajzolt egy házat.,2,1,4.2301
trog_javitott,FF141,15.0,pragm,Kalapja a libának is van.,3,0,4.9747
trog_javitott,FF141,4.0,pragm,Pisti egy igazi éjszakai bagoly.,3,1,3.2588
trog_javitott,FF141,17.0,pragm,"Látom, lustálkodtál egész nap, meg is telt a kosár.",2,1,7.1803
trog_javitott,FF141,10.0,pragm,A fiú már elkészült a homokvárral.,4,0,7.8129
trog_javitott,FF141,7.0,pragm,A legtöbb malac kapott kukoricát,4,0,0.2042
trog_javitott,FF141,16.0,pragm,"De ügyes vagy, hogy eltörted a poharat.",1,1,6.1314
trog_javitott,FF141,3.0,pragm,A hegedűtanár egy sárkány.,2,1,3.8681
trog_javitott,FF141,0.0,pragm,A malac locsolja meg a fát.,4,1,4.3139
trog_javitott,FF141,1.0,pragm,A szarvas a tévét szereli meg.,1,1,4.0992
trog_javitott,FF141,11.0,pragm,A virágot már kiszínezte a bohóc.,4,1,4.4739
trog_javitott,FF141,8.0,pragm,Néhány alma kigurult a kosárból.,1,1,3.5662
trog_javitott,FF141,6.0,pragm,A kislánynak van legalább 3 kutyája.,4,1,7.8137
trog_javitott,FF123,0.0,gramm,"A hal kék, de nem pöttyös.",1,1,2.5062
trog_javitott,FF123,13.0,gramm,"A könyv azon a tányéron van, ami kék.",2,1,3.7
trog_javitott,FF123,17.0,gramm,"A bohóc alszik, de az elefánt nem.",2,1,3.9769
trog_javitott,FF123,16.0,gramm,"A róka, amit a malac kerget, az kicsi.",4,1,4.2399
trog_javitott,FF123,2.0,gramm,A kisfiú palacsintát süt a bohócnak.,1,1,3.535
trog_javitott,FF123,6.0,gramm,A sárga táska a zöld széken van,3,1,3.6516
trog_javitott,FF123,7.0,gramm,A zöld csésze a kockás vödör fölött van.,4,1,4.1863
trog_javitott,FF123,3.0,gramm,A kecskét a kakas kergeti.,2,1,3.7488
trog_javitott,FF123,8.0,gramm,"A fiú, aki megpuszilja a lányt, az barna hajú.",4,1,4.8211
trog_javitott,FF123,11.0,gramm,"A kislány, aki a busz elejénél áll, piros szoknyában van.",4,1,4.5299
trog_javitott,FF123,4.0,gramm,A lány az ágyon ugrál és a macska a szőnyegen fekszik.,2,1,3.9818
trog_javitott,FF123,10.0,gramm,"A boszorkány, aki a seprűn lovagol, ellopta a nyakláncot.",2,0,5.1867
trog_javitott,FF123,5.0,gramm,"A pöttyös labda nagyobb, mint a csíkos kancsó",2,1,4.2873
trog_javitott,FF123,14.0,gramm,"A lány azt a macskát kergeti, ami kövér.",2,1,4.6958
trog_javitott,FF123,9.0,gramm,"A szív, ami a négyzetben van, az pöttyös.",3,1,4.3213
trog_javitott,FF123,12.0,gramm,"A sárkány, aki a szekrény mögé bújt, csokit eszik.",4,1,5.883
trog_javitott,FF123,1.0,gramm,"A zsiráfnak van egy hosszú, kockás, fekete-fehér nyakkendője.",4,1,4.8818
trog_javitott,FF123,15.0,gramm,"A felhő, ami előtt a madár van, az lila.",4,1,4.5475
trog_javitott,FF123,8.0,pragm,Néhány alma kigurult a kosárból.,1,1,4.2572
trog_javitott,FF123,6.0,pragm,A kislánynak van legalább 3 kutyája.,2,0,4.1234
trog_javitott,FF123,0.0,pragm,A malac locsolja meg a fát.,4,1,4.267
trog_javitott,FF123,4.0,pragm,Pisti egy igazi éjszakai bagoly.,3,1,4.3822
trog_javitott,FF123,7.0,pragm,A legtöbb malac kapott kukoricát,3,0,5.4848
trog_javitott,FF123,3.0,pragm,A hegedűtanár egy sárkány.,4,0,3.2242
trog_javitott,FF123,15.0,pragm,Kalapja a libának is van.,1,1,4.6751
trog_javitott,FF123,1.0,pragm,A szarvas a tévét szereli meg.,2,0,4.6095
trog_javitott,FF123,9.0,pragm,A festő rajzolt egy házat.,2,1,4.8368
trog_javitott,FF123,17.0,pragm,"Látom, lustálkodtál egész nap, meg is telt a kosár.",2,1,7.1812
trog_javitott,FF123,12.0,pragm,A malac is felmászott a fára.,1,1,3.3386
trog_javitott,FF123,2.0,pragm,A szoba egy rettenetes disznóól.,3,0,4.3797
trog_javitott,FF123,14.0,pragm,Piros lufit minden gyerek kapott.,3,1,5.2925
trog_javitott,FF123,11.0,pragm,A virágot már kiszínezte a bohóc.,4,1,3.1806
trog_javitott,FF123,5.0,pragm,Julcsi húga nagyon nyuszi volt a mikulásünnepségen.,1,1,4.6719
trog_javitott,FF123,16.0,pragm,"De ügyes vagy, hogy eltörted a poharat.",2,0,5.08
trog_javitott,FF123,13.0,pragm,A fiú a békát is megfogta.,4,1,5.8174
trog_javitott,FF123,10.0,pragm,A fiú már elkészült a homokvárral.,4,0,4.7013
trog_javitott,FF157,1.0,gramm,"A zsiráfnak van egy hosszú, kockás, fekete-fehér nyakkendője.",4,1,5.254
trog_javitott,FF157,16.0,gramm,"A róka, amit a malac kerget, az kicsi.",3,0,7.237
trog_javitott,FF157,11.0,gramm,"A kislány, aki a busz elejénél áll, piros szoknyában van.",4,1,5.82
trog_javitott,FF157,13.0,gramm,"A könyv azon a tányéron van, ami kék.",2,1,3.988
trog_javitott,FF157,8.0,gramm,"A fiú, aki megpuszilja a lányt, az barna hajú.",4,1,4.055
trog_javitott,FF157,7.0,gramm,A zöld csésze a kockás vödör fölött van.,4,1,5.196
trog_javitott,FF157,17.0,gramm,"A bohóc alszik, de az elefánt nem.",2,1,4.454
trog_javitott,FF157,6.0,gramm,A sárga táska a zöld széken van,3,1,2.82
trog_javitott,FF157,9.0,gramm,"A szív, ami a négyzetben van, az pöttyös.",3,1,3.96
trog_javitott,FF157,4.0,gramm,A lány az ágyon ugrál és a macska a szőnyegen fekszik.,2,1,5.197
trog_javitott,FF157,0.0,gramm,"A hal kék, de nem pöttyös.",1,1,3.009
trog_javitott,FF157,10.0,gramm,"A boszorkány, aki a seprűn lovagol, ellopta a nyakláncot.",3,1,5.393
trog_javitott,FF157,14.0,gramm,"A lány azt a macskát kergeti, ami kövér.",2,1,5.646
trog_javitott,FF157,15.0,gramm,"A felhő, ami előtt a madár van, az lila.",4,1,6.574
trog_javitott,FF157,3.0,gramm,A kecskét a kakas kergeti.,2,1,4.055
trog_javitott,FF157,2.0,gramm,A kisfiú palacsintát süt a bohócnak.,1,1,3.422
trog_javitott,FF157,12.0,gramm,"A sárkány, aki a szekrény mögé bújt, csokit eszik.",4,1,9.012
trog_javitott,FF157,5.0,gramm,"A pöttyös labda nagyobb, mint a csíkos kancsó",2,1,3.32
trog_javitott,FF157,1.0,pragm,A szarvas a tévét szereli meg.,2,0,5.009
trog_javitott,FF157,16.0,pragm,"De ügyes vagy, hogy eltörted a poharat.",2,0,7.153
trog_javitott,FF157,17.0,pragm,"Látom, lustálkodtál egész nap, meg is telt a kosár.",4,0,7.566
trog_javitott,FF157,4.0,pragm,Pisti egy igazi éjszakai bagoly.,3,1,3.248
trog_javitott,FF157,9.0,pragm,A festő rajzolt egy házat.,2,1,4.949
trog_javitott,FF157,12.0,pragm,A malac is felmászott a fára.,1,1,3.822
trog_javitott,FF157,15.0,pragm,Kalapja a libának is van.,1,1,8.258
trog_javitott,FF157,13.0,pragm,A fiú a békát is megfogta.,4,1,3.315
trog_javitott,FF157,3.0,pragm,A hegedűtanár egy sárkány.,2,1,5.255
trog_javitott,FF157,8.0,pragm,Néhány alma kigurult a kosárból.,1,1,5.085
trog_javitott,FF157,14.0,pragm,Piros lufit minden gyerek kapott.,3,1,12.329
trog_javitott,FF157,6.0,pragm,A kislánynak van legalább 3 kutyája.,4,1,5.524
trog_javitott,FF157,7.0,pragm,A legtöbb malac kapott kukoricát,2,1,7.227
trog_javitott,FF157,2.0,pragm,A szoba egy rettenetes disznóól.,4,1,3.325
trog_javitott,FF157,11.0,pragm,A virágot már kiszínezte a bohóc.,4,1,4.389
trog_javitott,FF157,0.0,pragm,A malac locsolja meg a fát.,4,1,5.892
trog_javitott,FF157,10.0,pragm,A fiú már elkészült a homokvárral.,4,0,18.012
trog_javitott,FF157,5.0,pragm,Julcsi húga nagyon nyuszi volt a mikulásünnepségen.,1,1,5.023
trog_javitott,FF120,8.0,gramm,"A fiú, aki megpuszilja a lányt, az barna hajú.",4,1,3.5036
trog_javitott,FF120,17.0,gramm,"A bohóc alszik, de az elefánt nem.",2,1,3.4738
trog_javitott,FF120,5.0,gramm,"A pöttyös labda nagyobb, mint a csíkos kancsó",2,1,3.0841
trog_javitott,FF120,10.0,gramm,"A boszorkány, aki a seprűn lovagol, ellopta a nyakláncot.",3,1,5.301
trog_javitott,FF120,9.0,gramm,"A szív, ami a négyzetben van, az pöttyös.",3,1,3.6563
trog_javitott,FF120,2.0,gramm,A kisfiú palacsintát süt a bohócnak.,1,1,3.6267
trog_javitott,FF120,6.0,gramm,A sárga táska a zöld széken van,3,1,2.9168
trog_javitott,FF120,7.0,gramm,A zöld csésze a kockás vödör fölött van.,4,1,6.0375
trog_javitott,FF120,1.0,gramm,"A zsiráfnak van egy hosszú, kockás, fekete-fehér nyakkendője.",4,1,4.3813
trog_javitott,FF120,12.0,gramm,"A sárkány, aki a szekrény mögé bújt, csokit eszik.",4,1,7.0867
trog_javitott,FF120,16.0,gramm,"A róka, amit a malac kerget, az kicsi.",4,1,3.6757
trog_javitott,FF120,11.0,gramm,"A kislány, aki a busz elejénél áll, piros szoknyában van.",4,1,3.5704
trog_javitott,FF120,13.0,gramm,"A könyv azon a tányéron van, ami kék.",2,1,3.4947
trog_javitott,FF120,0.0,gramm,"A hal kék, de nem pöttyös.",1,1,2.5904
trog_javitott,FF120,4.0,gramm,A lány az ágyon ugrál és a macska a szőnyegen fekszik.,2,1,3.29
trog_javitott,FF120,15.0,gramm,"A felhő, ami előtt a madár van, az lila.",4,1,4.0829
trog_javitott,FF120,14.0,gramm,"A lány azt a macskát kergeti, ami kövér.",2,1,3.3488
trog_javitott,FF120,3.0,gramm,A kecskét a kakas kergeti.,2,1,2.5726
trog_javitott,FF120,0.0,pragm,A malac locsolja meg a fát.,4,1,5.1547
trog_javitott,FF120,15.0,pragm,Kalapja a libának is van.,1,1,5.1712
trog_javitott,FF120,13.0,pragm,A fiú a békát is megfogta.,4,1,3.3398
trog_javitott,FF120,7.0,pragm,A legtöbb malac kapott kukoricát,3,0,4.1313
trog_javitott,FF120,4.0,pragm,Pisti egy igazi éjszakai bagoly.,1,0,3.8891
trog_javitott,FF120,14.0,pragm,Piros lufit minden gyerek kapott.,3,1,5.0486
trog_javitott,FF120,9.0,pragm,A festő rajzolt egy házat.,2,1,4.2898
trog_javitott,FF120,12.0,pragm,A malac is felmászott a fára.,1,1,3.1053
trog_javitott,FF120,6.0,pragm,A kislánynak van legalább 3 kutyája.,2,0,7.8599
trog_javitott,FF120,3.0,pragm,A hegedűtanár egy sárkány.,2,1,4.148
trog_javitott,FF120,5.0,pragm,Julcsi húga nagyon nyuszi volt a mikulásünnepségen.,1,1,3.6895
trog_javitott,FF120,17.0,pragm,"Látom, lustálkodtál egész nap, meg is telt a kosár.",1,0,7.667
trog_javitott,FF120,11.0,pragm,A virágot már kiszínezte a bohóc.,4,1,5.3848
trog_javitott,FF120,1.0,pragm,A szarvas a tévét szereli meg.,1,1,6.4091
trog_javitott,FF120,8.0,pragm,Néhány alma kigurult a kosárból.,1,1,3.7594
trog_javitott,FF120,10.0,pragm,A fiú már elkészült a homokvárral.,2,1,7.7621
trog_javitott,FF120,2.0,pragm,A szoba egy rettenetes disznóól.,4,1,4.4529
trog_javitott,FF120,16.0,pragm,"De ügyes vagy, hogy eltörted a poharat.",1,1,5.01
trog_javitott,FF132,3.0,gramm,A kecskét a kakas kergeti.,2,1,3.5521
trog_javitott,FF132,17.0,gramm,"A bohóc alszik, de az elefánt nem.",2,1,4.267
trog_javitott,FF132,9.0,gramm,"A szív, ami a négyzetben van, az pöttyös.",3,1,4.2766
trog_javitott,FF132,11.0,gramm,"A kislány, aki a busz elejénél áll, piros szoknyában van.",4,1,4.3855
trog_javitott,FF132,6.0,gramm,A sárga táska a zöld széken van,4,0,3.0056
trog_javitott,FF132,2.0,gramm,A kisfiú palacsintát süt a bohócnak.,1,1,4.0522
trog_javitott,FF132,5.0,gramm,"A pöttyös labda nagyobb, mint a csíkos kancsó",2,1,2.988
trog_javitott,FF132,8.0,gramm,"A fiú, aki megpuszilja a lányt, az barna hajú.",4,1,3.7257
trog_javitott,FF132,10.0,gramm,"A boszorkány, aki a seprűn lovagol, ellopta a nyakláncot.",3,1,3.9027
trog_javitott,FF132,16.0,gramm,"A róka, amit a malac kerget, az kicsi.",4,1,4.067
trog_javitott,FF132,1.0,gramm,"A zsiráfnak van egy hosszú, kockás, fekete-fehér nyakkendője.",4,1,3.4214
trog_javitott,FF132,7.0,gramm,A zöld csésze a kockás vödör fölött van.,4,1,3.6725
trog_javitott,FF132,12.0,gramm,"A sárkány, aki a szekrény mögé bújt, csokit eszik.",4,1,4.7696
trog_javitott,FF132,0.0,gramm,"A hal kék, de nem pöttyös.",1,1,2.6234
trog_javitott,FF132,4.0,gramm,A lány az ágyon ugrál és a macska a szőnyegen fekszik.,2,1,3.1907
trog_javitott,FF132,13.0,gramm,"A könyv azon a tányéron van, ami kék.",2,1,3.2581
trog_javitott,FF132,14.0,gramm,"A lány azt a macskát kergeti, ami kövér.",2,1,5.5761
trog_javitott,FF132,15.0,gramm,"A felhő, ami előtt a madár van, az lila.",4,1,6.1232
trog_javitott,FF132,14.0,pragm,Piros lufit minden gyerek kapott.,2,0,11.9206
trog_javitott,FF132,0.0,pragm,A malac locsolja meg a fát.,1,0,3.9206
trog_javitott,FF132,7.0,pragm,A legtöbb malac kapott kukoricát,2,1,4.4627
trog_javitott,FF132,17.0,pragm,"Látom, lustálkodtál egész nap, meg is telt a kosár.",4,0,12.7799
trog_javitott,FF132,5.0,pragm,Julcsi húga nagyon nyuszi volt a mikulásünnepségen.,1,1,4.1697
trog_javitott,FF132,6.0,pragm,A kislánynak van legalább 3 kutyája.,4,1,6.001
trog_javitott,FF132,12.0,pragm,A malac is felmászott a fára.,1,1,3.1127
trog_javitott,FF132,3.0,pragm,A hegedűtanár egy sárkány.,2,1,4.0169
trog_javitott,FF132,10.0,pragm,A fiú már elkészült a homokvárral.,2,1,9.9953
trog_javitott,FF132,13.0,pragm,A fiú a békát is megfogta.,4,1,8.6466
trog_javitott,FF132,1.0,pragm,A szarvas a tévét szereli meg.,1,1,6.8627
trog_javitott,FF132,2.0,pragm,A szoba egy rettenetes disznóól.,4,1,3.8119
trog_javitott,FF132,15.0,pragm,Kalapja a libának is van.,3,0,3.61
trog_javitott,FF132,11.0,pragm,A virágot már kiszínezte a bohóc.,4,1,7.4109
trog_javitott,FF132,16.0,pragm,"De ügyes vagy, hogy eltörted a poharat.",1,1,4.2491
trog_javitott,FF132,8.0,pragm,Néhány alma kigurult a kosárból.,1,1,3.3229
trog_javitott,FF132,4.0,pragm,Pisti egy igazi éjszakai bagoly.,3,1,3.6606
trog_javitott,FF132,9.0,pragm,A festő rajzolt egy házat.,2,1,4.8658
trog_javitott,FF145,6.0,gramm,A sárga táska a zöld széken van,3,1,3.9173
trog_javitott,FF145,1.0,gramm,"A zsiráfnak van egy hosszú, kockás, fekete-fehér nyakkendője.",4,1,4.6532
trog_javitott,FF145,4.0,gramm,A lány az ágyon ugrál és a macska a szőnyegen fekszik.,2,1,4.2592
trog_javitott,FF145,13.0,gramm,"A könyv azon a tányéron van, ami kék.",2,1,4.3545
trog_javitott,FF145,10.0,gramm,"A boszorkány, aki a seprűn lovagol, ellopta a nyakláncot.",3,1,3.9507
trog_javitott,FF145,5.0,gramm,"A pöttyös labda nagyobb, mint a csíkos kancsó",2,1,3.1958
trog_javitott,FF145,12.0,gramm,"A sárkány, aki a szekrény mögé bújt, csokit eszik.",4,1,5.9189
trog_javitott,FF145,2.0,gramm,A kisfiú palacsintát süt a bohócnak.,1,1,4.143
trog_javitott,FF145,3.0,gramm,A kecskét a kakas kergeti.,2,1,3.4077
trog_javitott,FF145,15.0,gramm,"A felhő, ami előtt a madár van, az lila.",4,1,5.063
trog_javitott,FF145,17.0,gramm,"A bohóc alszik, de az elefánt nem.",2,1,3.5284
trog_javitott,FF145,16.0,gramm,"A róka, amit a malac kerget, az kicsi.",4,1,4.2395
trog_javitott,FF145,9.0,gramm,"A szív, ami a négyzetben van, az pöttyös.",3,1,3.4526
trog_javitott,FF145,11.0,gramm,"A kislány, aki a busz elejénél áll, piros szoknyában van.",4,1,4.9721
trog_javitott,FF145,14.0,gramm,"A lány azt a macskát kergeti, ami kövér.",2,1,4.0825
trog_javitott,FF145,8.0,gramm,"A fiú, aki megpuszilja a lányt, az barna hajú.",4,1,3.9944
trog_javitott,FF145,7.0,gramm,A zöld csésze a kockás vödör fölött van.,4,1,4.1989
trog_javitott,FF145,0.0,gramm,"A hal kék, de nem pöttyös.",1,1,3.2546
trog_javitott,FF145,17.0,pragm,"Látom, lustálkodtál egész nap, meg is telt a kosár.",4,0,7.4379
trog_javitott,FF145,14.0,pragm,Piros lufit minden gyerek kapott.,3,1,8.7186
trog_javitott,FF145,16.0,pragm,"De ügyes vagy, hogy eltörted a poharat.",2,0,4.4677
trog_javitott,FF145,8.0,pragm,Néhány alma kigurult a kosárból.,1,1,4.338
trog_javitott,FF145,3.0,pragm,A hegedűtanár egy sárkány.,4,0,3.7774
trog_javitott,FF145,11.0,pragm,A virágot már kiszínezte a bohóc.,4,1,5.9381
trog_javitott,FF145,5.0,pragm,Julcsi húga nagyon nyuszi volt a mikulásünnepségen.,1,1,7.0481
trog_javitott,FF145,15.0,pragm,Kalapja a libának is van.,3,0,3.6752
trog_javitott,FF145,7.0,pragm,A legtöbb malac kapott kukoricát,2,1,4.4283
trog_javitott,FF145,10.0,pragm,A fiú már elkészült a homokvárral.,2,1,6.733
trog_javitott,FF145,13.0,pragm,A fiú a békát is megfogta.,4,1,4.3199
trog_javitott,FF145,9.0,pragm,A festő rajzolt egy házat.,2,1,3.9409
trog_javitott,FF145,1.0,pragm,A szarvas a tévét szereli meg.,1,1,4.777
trog_javitott,FF145,6.0,pragm,A kislánynak van legalább 3 kutyája.,2,0,5.8275
trog_javitott,FF145,0.0,pragm,A malac locsolja meg a fát.,4,1,4.7964
trog_javitott,FF145,4.0,pragm,Pisti egy igazi éjszakai bagoly.,3,1,4.4461
trog_javitott,FF145,2.0,pragm,A szoba egy rettenetes disznóól.,4,1,6.1145
trog_javitott,FF145,12.0,pragm,A malac is felmászott a fára.,1,1,4.0857
trog_javitott,FF133,12.0,gramm,"A sárkány, aki a szekrény mögé bújt, csokit eszik.",4,1,4.8689
trog_javitott,FF133,15.0,gramm,"A felhő, ami előtt a madár van, az lila.",4,1,5.1024
trog_javitott,FF133,11.0,gramm,"A kislány, aki a busz elejénél áll, piros szoknyában van.",4,1,4.5466
trog_javitott,FF133,4.0,gramm,A lány az ágyon ugrál és a macska a szőnyegen fekszik.,2,1,4.3978
trog_javitott,FF133,1.0,gramm,"A zsiráfnak van egy hosszú, kockás, fekete-fehér nyakkendője.",4,1,5.3334
trog_javitott,FF133,0.0,gramm,"A hal kék, de nem pöttyös.",1,1,3.4356
trog_javitott,FF133,17.0,gramm,"A bohóc alszik, de az elefánt nem.",2,1,5.4157
trog_javitott,FF133,16.0,gramm,"A róka, amit a malac kerget, az kicsi.",4,1,6.9894
trog_javitott,FF133,13.0,gramm,"A könyv azon a tányéron van, ami kék.",2,1,4.2446
trog_javitott,FF133,2.0,gramm,A kisfiú palacsintát süt a bohócnak.,1,1,5.7784
trog_javitott,FF133,9.0,gramm,"A szív, ami a négyzetben van, az pöttyös.",3,1,5.3397
trog_javitott,FF133,10.0,gramm,"A boszorkány, aki a seprűn lovagol, ellopta a nyakláncot.",3,1,4.7906
trog_javitott,FF133,3.0,gramm,A kecskét a kakas kergeti.,2,1,4.1916
trog_javitott,FF133,7.0,gramm,A zöld csésze a kockás vödör fölött van.,4,1,3.8507
trog_javitott,FF133,5.0,gramm,"A pöttyös labda nagyobb, mint a csíkos kancsó",2,1,3.8309
trog_javitott,FF133,14.0,gramm,"A lány azt a macskát kergeti, ami kövér.",2,1,4.0569
trog_javitott,FF133,8.0,gramm,"A fiú, aki megpuszilja a lányt, az barna hajú.",4,1,4.2032
trog_javitott,FF133,6.0,gramm,A sárga táska a zöld széken van,3,1,3.6503
trog_javitott,FF133,1.0,pragm,A szarvas a tévét szereli meg.,1,1,10.7711
trog_javitott,FF133,2.0,pragm,A szoba egy rettenetes disznóól.,4,1,5.1719
trog_javitott,FF133,7.0,pragm,A legtöbb malac kapott kukoricát,2,1,4.0908
trog_javitott,FF133,15.0,pragm,Kalapja a libának is van.,1,1,13.1039
trog_javitott,FF133,3.0,pragm,A hegedűtanár egy sárkány.,4,0,3.9648
trog_javitott,FF133,16.0,pragm,"De ügyes vagy, hogy eltörted a poharat.",2,0,5.1431
trog_javitott,FF133,14.0,pragm,Piros lufit minden gyerek kapott.,3,1,10.3512
trog_javitott,FF133,9.0,pragm,A festő rajzolt egy házat.,2,1,7.4837
trog_javitott,FF133,17.0,pragm,"Látom, lustálkodtál egész nap, meg is telt a kosár.",2,1,5.6651
trog_javitott,FF133,11.0,pragm,A virágot már kiszínezte a bohóc.,4,1,7.63
trog_javitott,FF133,12.0,pragm,A malac is felmászott a fára.,1,1,4.287
trog_javitott,FF133,6.0,pragm,A kislánynak van legalább 3 kutyája.,4,1,8.3495
trog_javitott,FF133,10.0,pragm,A fiú már elkészült a homokvárral.,3,0,6.9513
trog_javitott,FF133,5.0,pragm,Julcsi húga nagyon nyuszi volt a mikulásünnepségen.,1,1,4.4866
trog_javitott,FF133,13.0,pragm,A fiú a békát is megfogta.,4,1,6.6205
trog_javitott,FF133,8.0,pragm,Néhány alma kigurult a kosárból.,1,1,4.1538
trog_javitott,FF133,4.0,pragm,Pisti egy igazi éjszakai bagoly.,3,1,4.0043
trog_javitott,FF133,0.0,pragm,A malac locsolja meg a fát.,1,0,5.0092
trog_javitott,FF202,15.0,gramm,"A felhő, ami előtt a madár van, az lila.",4,1,7.8453
trog_javitott,FF202,12.0,gramm,"A sárkány, aki a szekrény mögé bújt, csokit eszik.",4,1,8.0151
trog_javitott,FF202,14.0,gramm,"A lány azt a macskát kergeti, ami kövér.",2,1,7.2182
trog_javitott,FF202,9.0,gramm,"A szív, ami a négyzetben van, az pöttyös.",3,1,10.3386
trog_javitott,FF202,0.0,gramm,"A hal kék, de nem pöttyös.",1,1,2.8803
trog_javitott,FF202,1.0,gramm,"A zsiráfnak van egy hosszú, kockás, fekete-fehér nyakkendője.",4,1,4.7426
trog_javitott,FF202,2.0,gramm,A kisfiú palacsintát süt a bohócnak.,1,1,4.5831
trog_javitott,FF202,8.0,gramm,"A fiú, aki megpuszilja a lányt, az barna hajú.",4,1,4.3291
trog_javitott,FF202,17.0,gramm,"A bohóc alszik, de az elefánt nem.",2,1,5.606
trog_javitott,FF202,13.0,gramm,"A könyv azon a tányéron van, ami kék.",2,1,3.654
trog_javitott,FF202,6.0,gramm,A sárga táska a zöld széken van,3,1,3.6966
trog_javitott,FF202,4.0,gramm,A lány az ágyon ugrál és a macska a szőnyegen fekszik.,2,1,4.0925
trog_javitott,FF202,5.0,gramm,"A pöttyös labda nagyobb, mint a csíkos kancsó",2,1,5.5884
trog_javitott,FF202,11.0,gramm,"A kislány, aki a busz elejénél áll, piros szoknyában van.",4,1,5.5409
trog_javitott,FF202,16.0,gramm,"A róka, amit a malac kerget, az kicsi.",4,1,7.2692
trog_javitott,FF202,7.0,gramm,A zöld csésze a kockás vödör fölött van.,4,1,4.7259
trog_javitott,FF202,10.0,gramm,"A boszorkány, aki a seprűn lovagol, ellopta a nyakláncot.",3,1,5.982
trog_javitott,FF202,3.0,gramm,A kecskét a kakas kergeti.,2,1,4.0809
trog_javitott,FF202,8.0,pragm,Néhány alma kigurult a kosárból.,1,1,6.8445
trog_javitott,FF202,15.0,pragm,Kalapja a libának is van.,1,1,9.2843
trog_javitott,FF202,3.0,pragm,A hegedűtanár egy sárkány.,4,0,4.9904
trog_javitott,FF202,0.0,pragm,A malac locsolja meg a fát.,4,1,6.0031
trog_javitott,FF202,2.0,pragm,A szoba egy rettenetes disznóól.,3,0,3.1161
trog_javitott,FF202,12.0,pragm,A malac is felmászott a fára.,1,1,4.2097
trog_javitott,FF202,13.0,pragm,A fiú a békát is megfogta.,4,1,5.4058
trog_javitott,FF202,7.0,pragm,A legtöbb malac kapott kukoricát,2,1,4.966
trog_javitott,FF202,6.0,pragm,A kislánynak van legalább 3 kutyája.,4,1,4.8148
trog_javitott,FF202,14.0,pragm,Piros lufit minden gyerek kapott.,3,1,12.7897
trog_javitott,FF202,16.0,pragm,"De ügyes vagy, hogy eltörted a poharat.",1,1,5.6069
trog_javitott,FF202,11.0,pragm,A virágot már kiszínezte a bohóc.,4,1,8.3993
trog_javitott,FF202,4.0,pragm,Pisti egy igazi éjszakai bagoly.,3,1,6.9691
trog_javitott,FF202,9.0,pragm,A festő rajzolt egy házat.,2,1,7.2152
trog_javitott,FF202,17.0,pragm,"Látom, lustálkodtál egész nap, meg is telt a kosár.",2,1,8.609
trog_javitott,FF202,1.0,pragm,A szarvas a tévét szereli meg.,1,1,22.8551
trog_javitott,FF202,5.0,pragm,Julcsi húga nagyon nyuszi volt a mikulásünnepségen.,1,1,10.8657
trog_javitott,FF202,10.0,pragm,A fiú már elkészült a homokvárral.,2,1,7.1449
trog_javitott,FF162,5.0,gramm,"A pöttyös labda nagyobb, mint a csíkos kancsó",2,1,4.4243
trog_javitott,FF162,13.0,gramm,"A könyv azon a tányéron van, ami kék.",2,1,4.4264
trog_javitott,FF162,12.0,gramm,"A sárkány, aki a szekrény mögé bújt, csokit eszik.",4,1,8.0712
trog_javitott,FF162,11.0,gramm,"A kislány, aki a busz elejénél áll, piros szoknyában van.",4,1,6.555
trog_javitott,FF162,4.0,gramm,A lány az ágyon ugrál és a macska a szőnyegen fekszik.,2,1,4.4626
trog_javitott,FF162,2.0,gramm,A kisfiú palacsintát süt a bohócnak.,1,1,3.8714
trog_javitott,FF162,7.0,gramm,A zöld csésze a kockás vödör fölött van.,4,1,3.9878
trog_javitott,FF162,9.0,gramm,"A szív, ami a négyzetben van, az pöttyös.",3,1,4.7892
trog_javitott,FF162,3.0,gramm,A kecskét a kakas kergeti.,2,1,3.457
trog_javitott,FF162,14.0,gramm,"A lány azt a macskát kergeti, ami kövér.",2,1,5.6247
trog_javitott,FF162,0.0,gramm,"A hal kék, de nem pöttyös.",1,1,2.5063
trog_javitott,FF162,8.0,gramm,"A fiú, aki megpuszilja a lányt, az barna hajú.",4,1,3.9719
trog_javitott,FF162,1.0,gramm,"A zsiráfnak van egy hosszú, kockás, fekete-fehér nyakkendője.",4,1,4.5896
trog_javitott,FF162,17.0,gramm,"A bohóc alszik, de az elefánt nem.",2,1,6.5729
trog_javitott,FF162,15.0,gramm,"A felhő, ami előtt a madár van, az lila.",4,1,4.4096
trog_javitott,FF162,6.0,gramm,A sárga táska a zöld széken van,3,1,3.4395
trog_javitott,FF162,10.0,gramm,"A boszorkány, aki a seprűn lovagol, ellopta a nyakláncot.",3,1,4.7556
trog_javitott,FF162,16.0,gramm,"A róka, amit a malac kerget, az kicsi.",4,1,5.1443
trog_javitott,FF162,17.0,pragm,"Látom, lustálkodtál egész nap, meg is telt a kosár.",2,1,6.447
trog_javitott,FF162,8.0,pragm,Néhány alma kigurult a kosárból.,1,1,3.363
trog_javitott,FF162,4.0,pragm,Pisti egy igazi éjszakai bagoly.,3,1,4.1344
trog_javitott,FF162,12.0,pragm,A malac is felmászott a fára.,1,1,5.1313
trog_javitott,FF162,2.0,pragm,A szoba egy rettenetes disznóól.,4,1,6.2144
trog_javitott,FF162,0.0,pragm,A malac locsolja meg a fát.,4,1,4.5915
trog_javitott,FF162,7.0,pragm,A legtöbb malac kapott kukoricát,2,1,3.9629
trog_javitott,FF162,16.0,pragm,"De ügyes vagy, hogy eltörted a poharat.",1,1,6.0336
trog_javitott,FF162,9.0,pragm,A festő rajzolt egy házat.,2,1,6.8127
trog_javitott,FF162,13.0,pragm,A fiú a békát is megfogta.,4,1,4.1812
trog_javitott,FF162,11.0,pragm,A virágot már kiszínezte a bohóc.,4,1,5.8333
trog_javitott,FF162,1.0,pragm,A szarvas a tévét szereli meg.,1,1,6.2577
trog_javitott,FF162,5.0,pragm,Julcsi húga nagyon nyuszi volt a mikulásünnepségen.,1,1,5.3795
trog_javitott,FF162,3.0,pragm,A hegedűtanár egy sárkány.,4,0,3.2211
trog_javitott,FF162,15.0,pragm,Kalapja a libának is van.,3,0,4.764
trog_javitott,FF162,14.0,pragm,Piros lufit minden gyerek kapott.,2,0,4.806
trog_javitott,FF162,6.0,pragm,A kislánynak van legalább 3 kutyája.,4,1,5.444
trog_javitott,FF162,10.0,pragm,A fiú már elkészült a homokvárral.,2,1,7.4732
trog_javitott,FF279,4.0,gramm,A lány az ágyon ugrál és a macska a szőnyegen fekszik.,2,1,3.5182
trog_javitott,FF279,5.0,gramm,"A pöttyös labda nagyobb, mint a csíkos kancsó",2,1,2.7018
trog_javitott,FF279,0.0,gramm,"A hal kék, de nem pöttyös.",1,1,2.4651
trog_javitott,FF279,12.0,gramm,"A sárkány, aki a szekrény mögé bújt, csokit eszik.",3,0,4.8017
trog_javitott,FF279,9.0,gramm,"A szív, ami a négyzetben van, az pöttyös.",3,1,3.7873
trog_javitott,FF279,6.0,gramm,A sárga táska a zöld széken van,3,1,2.9746
trog_javitott,FF279,3.0,gramm,A kecskét a kakas kergeti.,2,1,2.4663
trog_javitott,FF279,17.0,gramm,"A bohóc alszik, de az elefánt nem.",2,1,3.7486
trog_javitott,FF279,8.0,gramm,"A fiú, aki megpuszilja a lányt, az barna hajú.",4,1,3.644
trog_javitott,FF279,2.0,gramm,A kisfiú palacsintát süt a bohócnak.,1,1,3.2474
trog_javitott,FF279,13.0,gramm,"A könyv azon a tányéron van, ami kék.",2,1,4.2557
trog_javitott,FF279,14.0,gramm,"A lány azt a macskát kergeti, ami kövér.",2,1,3.9165
trog_javitott,FF279,10.0,gramm,"A boszorkány, aki a seprűn lovagol, ellopta a nyakláncot.",3,1,3.2021
trog_javitott,FF279,11.0,gramm,"A kislány, aki a busz elejénél áll, piros szoknyában van.",4,1,3.8558
trog_javitott,FF279,16.0,gramm,"A róka, amit a malac kerget, az kicsi.",4,1,4.081
trog_javitott,FF279,15.0,gramm,"A felhő, ami előtt a madár van, az lila.",4,1,4.5259
trog_javitott,FF279,1.0,gramm,"A zsiráfnak van egy hosszú, kockás, fekete-fehér nyakkendője.",4,1,3.9157
trog_javitott,FF279,7.0,gramm,A zöld csésze a kockás vödör fölött van.,4,1,3.3384
trog_javitott,FF279,3.0,pragm,A hegedűtanár egy sárkány.,4,0,3.2472
trog_javitott,FF279,11.0,pragm,A virágot már kiszínezte a bohóc.,2,0,5.038
trog_javitott,FF279,2.0,pragm,A szoba egy rettenetes disznóól.,4,1,3.6791
trog_javitott,FF279,17.0,pragm,"Látom, lustálkodtál egész nap, meg is telt a kosár.",1,0,8.9339
trog_javitott,FF279,7.0,pragm,A legtöbb malac kapott kukoricát,2,1,3.686
trog_javitott,FF279,4.0,pragm,Pisti egy igazi éjszakai bagoly.,3,1,4.9172
trog_javitott,FF279,6.0,pragm,A kislánynak van legalább 3 kutyája.,2,0,3.8732
trog_javitott,FF279,10.0,pragm,A fiú már elkészült a homokvárral.,4,0,3.4892
trog_javitott,FF279,9.0,pragm,A festő rajzolt egy házat.,2,1,4.2886
trog_javitott,FF279,13.0,pragm,A fiú a békát is megfogta.,4,1,4.3029
trog_javitott,FF279,14.0,pragm,Piros lufit minden gyerek kapott.,2,0,6.0925
trog_javitott,FF279,0.0,pragm,A malac locsolja meg a fát.,4,1,6.6566
trog_javitott,FF279,8.0,pragm,Néhány alma kigurult a kosárból.,1,1,4.2613
trog_javitott,FF279,5.0,pragm,Julcsi húga nagyon nyuszi volt a mikulásünnepségen.,1,1,5.0302
trog_javitott,FF279,15.0,pragm,Kalapja a libának is van.,1,1,5.0069
trog_javitott,FF279,1.0,pragm,A szarvas a tévét szereli meg.,1,1,9.9037
trog_javitott,FF279,16.0,pragm,"De ügyes vagy, hogy eltörted a poharat.",1,1,4.9158
trog_javitott,FF279,12.0,pragm,A malac is felmászott a fára.,1,1,3.0094
trog_javitott,193,7.0,gramm,A zöld csésze a kockás vödör fölött van.,4,1,6.169
trog_javitott,193,17.0,gramm,"A bohóc alszik, de az elefánt nem.",2,1,9.084
trog_javitott,193,1.0,gramm,"A zsiráfnak van egy hosszú, kockás, fekete-fehér nyakkendője.",4,1,6.131
trog_javitott,193,4.0,gramm,A lány az ágyon ugrál és a macska a szőnyegen fekszik.,2,1,7.747
trog_javitott,193,11.0,gramm,"A kislány, aki a busz elejénél áll, piros szoknyában van.",4,1,6.261
trog_javitott,193,12.0,gramm,"A sárkány, aki a szekrény mögé bújt, csokit eszik.",4,1,13.869
trog_javitott,193,10.0,gramm,"A boszorkány, aki a seprűn lovagol, ellopta a nyakláncot.",3,1,7.188
trog_javitott,193,14.0,gramm,"A lány azt a macskát kergeti, ami kövér.",2,1,10.597
trog_javitott,193,3.0,gramm,A kecskét a kakas kergeti.,2,1,5.08
trog_javitott,193,0.0,gramm,"A hal kék, de nem pöttyös.",1,1,3.872
trog_javitott,193,13.0,gramm,"A könyv azon a tányéron van, ami kék.",2,1,4.577
trog_javitott,193,16.0,gramm,"A róka, amit a malac kerget, az kicsi.",2,0,11.946
trog_javitott,193,5.0,gramm,"A pöttyös labda nagyobb, mint a csíkos kancsó",2,1,4.595
trog_javitott,193,8.0,gramm,"A fiú, aki megpuszilja a lányt, az barna hajú.",4,1,5.736
trog_javitott,193,9.0,gramm,"A szív, ami a négyzetben van, az pöttyös.",3,1,10.196
trog_javitott,193,15.0,gramm,"A felhő, ami előtt a madár van, az lila.",4,1,6.934
trog_javitott,193,2.0,gramm,A kisfiú palacsintát süt a bohócnak.,1,1,8.309
trog_javitott,193,6.0,gramm,A sárga táska a zöld széken van,3,1,3.918
trog_javitott,193,15.0,pragm,Kalapja a libának is van.,3,0,29.964
trog_javitott,193,14.0,pragm,Piros lufit minden gyerek kapott.,2,0,40.433
trog_javitott,193,1.0,pragm,A szarvas a tévét szereli meg.,1,1,15.536
trog_javitott,193,13.0,pragm,A fiú a békát is megfogta.,4,1,7.503
trog_javitott,193,2.0,pragm,A szoba egy rettenetes disznóól.,4,1,14.656
trog_javitott,193,6.0,pragm,A kislánynak van legalább 3 kutyája.,4,1,24.965
trog_javitott,193,0.0,pragm,A malac locsolja meg a fát.,4,1,9.224
trog_javitott,193,4.0,pragm,Pisti egy igazi éjszakai bagoly.,3,1,10.119
trog_javitott,193,11.0,pragm,A virágot már kiszínezte a bohóc.,4,1,21.381
trog_javitott,193,12.0,pragm,A malac is felmászott a fára.,1,1,6.687
trog_javitott,193,10.0,pragm,A fiú már elkészült a homokvárral.,2,1,17.61
trog_javitott,193,8.0,pragm,Néhány alma kigurult a kosárból.,1,1,10.187
trog_javitott,193,17.0,pragm,"Látom, lustálkodtál egész nap, meg is telt a kosár.",4,0,20.372
trog_javitott,193,16.0,pragm,"De ügyes vagy, hogy eltörted a poharat.",2,0,20.142
trog_javitott,193,9.0,pragm,A festő rajzolt egy házat.,2,1,10.802
trog_javitott,193,7.0,pragm,A legtöbb malac kapott kukoricát,2,1,12.612
trog_javitott,193,3.0,pragm,A hegedűtanár egy sárkány.,4,0,14.904
trog_javitott,193,5.0,pragm,Julcsi húga nagyon nyuszi volt a mikulásünnepségen.,1,1,14.923
trog_javitott,BL189,1.0,gramm,"A zsiráfnak van egy hosszú, kockás, fekete-fehér nyakkendője.",4,1,4.9666
trog_javitott,BL189,4.0,gramm,A lány az ágyon ugrál és a macska a szőnyegen fekszik.,2,1,5.5227
trog_javitott,BL189,10.0,gramm,"A boszorkány, aki a seprűn lovagol, ellopta a nyakláncot.",3,1,6.0531
trog_javitott,BL189,13.0,gramm,"A könyv azon a tányéron van, ami kék.",2,1,5.4917
trog_javitott,BL189,11.0,gramm,"A kislány, aki a busz elejénél áll, piros szoknyában van.",4,1,6.2883
trog_javitott,BL189,7.0,gramm,A zöld csésze a kockás vödör fölött van.,4,1,3.8305
trog_javitott,BL189,8.0,gramm,"A fiú, aki megpuszilja a lányt, az barna hajú.",4,1,4.9566
trog_javitott,BL189,16.0,gramm,"A róka, amit a malac kerget, az kicsi.",4,1,8.2947
trog_javitott,BL189,5.0,gramm,"A pöttyös labda nagyobb, mint a csíkos kancsó",2,1,4.9555
trog_javitott,BL189,14.0,gramm,"A lány azt a macskát kergeti, ami kövér.",2,1,4.767
trog_javitott,BL189,2.0,gramm,A kisfiú palacsintát süt a bohócnak.,1,1,5.8436
trog_javitott,BL189,0.0,gramm,"A hal kék, de nem pöttyös.",1,1,3.0196
trog_javitott,BL189,9.0,gramm,"A szív, ami a négyzetben van, az pöttyös.",4,0,8.8706
trog_javitott,BL189,17.0,gramm,"A bohóc alszik, de az elefánt nem.",2,1,6.1061
trog_javitott,BL189,3.0,gramm,A kecskét a kakas kergeti.,2,1,4.938
trog_javitott,BL189,6.0,gramm,A sárga táska a zöld széken van,3,1,3.789
trog_javitott,BL189,15.0,gramm,"A felhő, ami előtt a madár van, az lila.",4,1,8.4642
trog_javitott,BL189,12.0,gramm,"A sárkány, aki a szekrény mögé bújt, csokit eszik.",4,1,7.9734
trog_javitott,BL189,6.0,pragm,A kislánynak van legalább 3 kutyája.,4,1,7.2497
trog_javitott,BL189,11.0,pragm,A virágot már kiszínezte a bohóc.,4,1,9.0819
trog_javitott,BL189,7.0,pragm,A legtöbb malac kapott kukoricát,2,1,7.9566
trog_javitott,BL189,9.0,pragm,A festő rajzolt egy házat.,2,1,6.4939
trog_javitott,BL189,13.0,pragm,A fiú a békát is megfogta.,4,1,7.4879
trog_javitott,BL189,12.0,pragm,A malac is felmászott a fára.,1,1,6.6584
trog_javitott,BL189,2.0,pragm,A szoba egy rettenetes disznóól.,4,1,6.6507
trog_javitott,BL189,1.0,pragm,A szarvas a tévét szereli meg.,1,1,7.2156
trog_javitott,BL189,8.0,pragm,Néhány alma kigurult a kosárból.,1,1,5.3142
trog_javitott,BL189,15.0,pragm,Kalapja a libának is van.,1,1,9.9115
trog_javitott,BL189,17.0,pragm,"Látom, lustálkodtál egész nap, meg is telt a kosár.",2,1,19.5735
trog_javitott,BL189,10.0,pragm,A fiú már elkészült a homokvárral.,4,0,13.847
trog_javitott,BL189,16.0,pragm,"De ügyes vagy, hogy eltörted a poharat.",1,1,13.5477
trog_javitott,BL189,5.0,pragm,Julcsi húga nagyon nyuszi volt a mikulásünnepségen.,1,1,6.1266
trog_javitott,BL189,0.0,pragm,A malac locsolja meg a fát.,4,1,5.5649
trog_javitott,BL189,3.0,pragm,A hegedűtanár egy sárkány.,4,0,19.3931
trog_javitott,BL189,14.0,pragm,Piros lufit minden gyerek kapott.,2,0,10.7083
trog_javitott,BL189,4.0,pragm,Pisti egy igazi éjszakai bagoly.,3,1,5.2954
trog_javitott,KOR180,12.0,gramm,"A sárkány, aki a szekrény mögé bújt, csokit eszik.",4,1,4.738
trog_javitott,KOR180,10.0,gramm,"A boszorkány, aki a seprűn lovagol, ellopta a nyakláncot.",4,0,4.806
trog_javitott,KOR180,4.0,gramm,A lány az ágyon ugrál és a macska a szőnyegen fekszik.,2,1,4.342
trog_javitott,KOR180,6.0,gramm,A sárga táska a zöld széken van,3,1,3.663
trog_javitott,KOR180,14.0,gramm,"A lány azt a macskát kergeti, ami kövér.",2,1,4.214
trog_javitott,KOR180,11.0,gramm,"A kislány, aki a busz elejénél áll, piros szoknyában van.",4,1,5.337
trog_javitott,KOR180,13.0,gramm,"A könyv azon a tányéron van, ami kék.",2,1,4.731
trog_javitott,KOR180,16.0,gramm,"A róka, amit a malac kerget, az kicsi.",4,1,4.652
trog_javitott,KOR180,0.0,gramm,"A hal kék, de nem pöttyös.",1,1,3.144
trog_javitott,KOR180,2.0,gramm,A kisfiú palacsintát süt a bohócnak.,1,1,4.473
trog_javitott,KOR180,8.0,gramm,"A fiú, aki megpuszilja a lányt, az barna hajú.",4,1,4.334
trog_javitott,KOR180,5.0,gramm,"A pöttyös labda nagyobb, mint a csíkos kancsó",2,1,3.455
trog_javitott,KOR180,3.0,gramm,A kecskét a kakas kergeti.,2,1,3.468
trog_javitott,KOR180,7.0,gramm,A zöld csésze a kockás vödör fölött van.,4,1,3.712
trog_javitott,KOR180,15.0,gramm,"A felhő, ami előtt a madár van, az lila.",4,1,5.55
trog_javitott,KOR180,17.0,gramm,"A bohóc alszik, de az elefánt nem.",2,1,4.34
trog_javitott,KOR180,9.0,gramm,"A szív, ami a négyzetben van, az pöttyös.",1,0,4.391
trog_javitott,KOR180,1.0,gramm,"A zsiráfnak van egy hosszú, kockás, fekete-fehér nyakkendője.",4,1,5.362
trog_javitott,KOR180,10.0,pragm,A fiú már elkészült a homokvárral.,2,1,6.561
trog_javitott,KOR180,14.0,pragm,Piros lufit minden gyerek kapott.,2,0,6.705
trog_javitott,KOR180,15.0,pragm,Kalapja a libának is van.,1,1,7.49
trog_javitott,KOR180,9.0,pragm,A festő rajzolt egy házat.,2,1,5.658
trog_javitott,KOR180,3.0,pragm,A hegedűtanár egy sárkány.,4,0,3.885
trog_javitott,KOR180,6.0,pragm,A kislánynak van legalább 3 kutyája.,2,0,6.109
trog_javitott,KOR180,1.0,pragm,A szarvas a tévét szereli meg.,1,1,5.957
trog_javitott,KOR180,7.0,pragm,A legtöbb malac kapott kukoricát,2,1,5.825
trog_javitott,KOR180,16.0,pragm,"De ügyes vagy, hogy eltörted a poharat.",2,0,6.032
trog_javitott,KOR180,8.0,pragm,Néhány alma kigurult a kosárból.,1,1,4.5
trog_javitott,KOR180,2.0,pragm,A szoba egy rettenetes disznóól.,3,0,4.242
trog_javitott,KOR180,12.0,pragm,A malac is felmászott a fára.,1,1,2.505
trog_javitott,KOR180,4.0,pragm,Pisti egy igazi éjszakai bagoly.,3,1,5.136
trog_javitott,KOR180,13.0,pragm,A fiú a békát is megfogta.,4,1,5.353
trog_javitott,KOR180,11.0,pragm,A virágot már kiszínezte a bohóc.,1,0,6.274
trog_javitott,KOR180,0.0,pragm,A malac locsolja meg a fát.,4,1,5.429
trog_javitott,KOR180,5.0,pragm,Julcsi húga nagyon nyuszi volt a mikulásünnepségen.,1,1,5.508
trog_javitott,KOR180,17.0,pragm,"Látom, lustálkodtál egész nap, meg is telt a kosár.",4,0,7.423
trog_javitott,KOR182,10.0,gramm,"A boszorkány, aki a seprűn lovagol, ellopta a nyakláncot.",3,1,5.097
trog_javitott,KOR182,11.0,gramm,"A kislány, aki a busz elejénél áll, piros szoknyában van.",4,1,6.856
trog_javitott,KOR182,0.0,gramm,"A hal kék, de nem pöttyös.",1,1,3.072
trog_javitott,KOR182,8.0,gramm,"A fiú, aki megpuszilja a lányt, az barna hajú.",4,1,4.111
trog_javitott,KOR182,9.0,gramm,"A szív, ami a négyzetben van, az pöttyös.",3,1,5.209
trog_javitott,KOR182,17.0,gramm,"A bohóc alszik, de az elefánt nem.",2,1,4.519
trog_javitott,KOR182,13.0,gramm,"A könyv azon a tányéron van, ami kék.",2,1,3.754
