experiment_version,ID,trial,condition,sentence,response,ACC,RT
adult_trog,1002,0.0,gramm,"A hal kék, de nem pöttyös.",1,1,2.608
adult_trog,1002,6.0,gramm,A sárga táska a zöld széken van,3,1,3.507
adult_trog,1002,9.0,gramm,"A szív, ami a négyzetben van, az pöttyös.",3,1,6.485
adult_trog,1002,10.0,gramm,"A boszorkány, aki a seprűn lovagol, ellopta a nyakláncot.",3,1,7.446
adult_trog,1002,13.0,gramm,"A könyv azon a tányéron van, ami kék.",2,1,4.584
adult_trog,1002,4.0,gramm,A lány az ágyon ugrál és a macska a szőnyegen fekszik.,2,1,7.284
adult_trog,1002,1.0,gramm,"A zsiráfnak van egy hosszú, kockás, fekete-fehér nyakkendője.",4,1,4.557
adult_trog,1002,8.0,gramm,"A fiú, aki megpuszilja a lányt, az barna hajú.",4,1,9.721
adult_trog,1002,11.0,gramm,"A kislány, aki a busz elejénél áll, piros szoknyában van.",4,1,6.339
adult_trog,1002,7.0,gramm,A zöld csésze a kockás vödör fölött van.,4,1,5.888
adult_trog,1002,16.0,gramm,"A róka, amit a malac kerget, az kicsi.",4,1,0.189
adult_trog,1002,2.0,gramm,A kisfiú palacsintát süt a bohócnak.,1,1,8.21
adult_trog,1002,3.0,gramm,A kecskét a kakas kergeti.,2,1,3.619
adult_trog,1002,5.0,gramm,"A pöttyös labda nagyobb, mint a csíkos kancsó",2,1,4.648
adult_trog,1002,15.0,gramm,"A felhő, ami előtt a madár van, az lila.",4,1,8.672
adult_trog,1002,14.0,gramm,"A lány azt a macskát kergeti, ami kövér.",2,1,4.587
adult_trog,1002,12.0,gramm,"A sárkány, aki a szekrény mögé bújt, csokit eszik.",4,1,6.394
adult_trog,1002,16.0,pragm,"De ügyes vagy, hogy eltörted a poharat.",1,1,11.972
adult_trog,1002,13.0,pragm,A fiú a békát is megfogta.,4,1,6.763
adult_trog,1002,15.0,pragm,Kalapja a libának is van.,1,1,4.504
adult_trog,1002,10.0,pragm,A fiú már elkészült a homokvárral.,4,0,14.402
adult_trog,1002,8.0,pragm,Néhány alma kigurult a kosárból.,1,1,4.743
adult_trog,1002,1.0,pragm,A szarvas a tévét szereli meg.,1,1,6.895
adult_trog,1002,5.0,pragm,Julcsi húga nagyon nyuszi volt a mikulásünnepségen.,1,1,10.999
adult_trog,1002,7.0,pragm,A legtöbb malac kapott kukoricát,2,1,8.046
adult_trog,1002,6.0,pragm,A kislánynak van legalább 3 kutyája.,4,1,6.394
adult_trog,1002,11.0,pragm,A virágot már kiszínezte a bohóc.,4,1,27.554
adult_trog,1002,14.0,pragm,Piros lufit minden gyerek kapott.,2,0,7.825
adult_trog,1002,4.0,pragm,Pisti egy igazi éjszakai bagoly.,3,1,4.875
adult_trog,1002,12.0,pragm,A malac is felmászott a fára.,1,1,4.592
adult_trog,1002,2.0,pragm,A szoba egy rettenetes disznóól.,4,1,9.152
adult_trog,1002,3.0,pragm,A hegedűtanár egy sárkány.,2,1,11.921
adult_trog,1002,0.0,pragm,A malac locsolja meg a fát.,1,0,6.679
adult_trog,1002,17.0,pragm,"Látom, lustálkodtál egész nap, meg is telt a kosár.",1,0,7.41
adult_trog,1002,9.0,pragm,A festő rajzolt egy házat.,2,1,5.869
adult_trog,1001,6.0,gramm,A sárga táska a zöld széken van,3,1,4.573245
adult_trog,1001,0.0,gramm,"A hal kék, de nem pöttyös.",1,1,2.229665
adult_trog,1001,7.0,gramm,A zöld csésze a kockás vödör fölött van.,4,1,4.734595
adult_trog,1001,14.0,gramm,"A lány azt a macskát kergeti, ami kövér.",2,1,4.50477
adult_trog,1001,5.0,gramm,"A pöttyös labda nagyobb, mint a csíkos kancsó",2,1,2.844215
adult_trog,1001,9.0,gramm,"A szív, ami a négyzetben van, az pöttyös.",3,1,3.845185
adult_trog,1001,4.0,gramm,A lány az ágyon ugrál és a macska a szőnyegen fekszik.,2,1,3.56237
adult_trog,1001,1.0,gramm,"A zsiráfnak van egy hosszú, kockás, fekete-fehér nyakkendője.",2,0,6.383395
adult_trog,1001,2.0,gramm,A kisfiú palacsintát süt a bohócnak.,1,1,5.98392
adult_trog,1001,13.0,gramm,"A könyv azon a tányéron van, ami kék.",2,1,2.91558
adult_trog,1001,10.0,gramm,"A boszorkány, aki a seprűn lovagol, ellopta a nyakláncot.",4,0,5.9912
adult_trog,1001,8.0,gramm,"A fiú, aki megpuszilja a lányt, az barna hajú.",4,1,4.11832
adult_trog,1001,11.0,gramm,"A kislány, aki a busz elejénél áll, piros szoknyában van.",4,1,3.693335
adult_trog,1001,16.0,gramm,"A róka, amit a malac kerget, az kicsi.",2,0,3.054185
adult_trog,1001,12.0,gramm,"A sárkány, aki a szekrény mögé bújt, csokit eszik.",3,0,6.260965
adult_trog,1001,3.0,gramm,A kecskét a kakas kergeti.,2,1,2.95147
adult_trog,1001,15.0,gramm,"A felhő, ami előtt a madár van, az lila.",1,0,3.75005
adult_trog,1001,3.0,pragm,A hegedűtanár egy sárkány.,4,0,4.6721
adult_trog,1001,9.0,pragm,A festő rajzolt egy házat.,2,1,6.471815
adult_trog,1001,6.0,pragm,A kislánynak van legalább 3 kutyája.,4,1,5.44438
adult_trog,1001,2.0,pragm,A szoba egy rettenetes disznóól.,4,1,2.363395
adult_trog,1001,17.0,pragm,"Látom, lustálkodtál egész nap, meg is telt a kosár.",4,0,8.5595
adult_trog,1001,13.0,pragm,A fiú a békát is megfogta.,4,1,3.72443
adult_trog,1001,7.0,pragm,A legtöbb malac kapott kukoricát,2,1,5.47556
adult_trog,1001,0.0,pragm,A malac locsolja meg a fát.,2,0,5.45777
adult_trog,1001,8.0,pragm,Néhány alma kigurult a kosárból.,1,1,4.030845
adult_trog,1001,15.0,pragm,Kalapja a libának is van.,1,1,3.425215
adult_trog,1001,14.0,pragm,Piros lufit minden gyerek kapott.,2,0,5.34946
adult_trog,1001,10.0,pragm,A fiú már elkészült a homokvárral.,4,0,3.24795
adult_trog,1001,12.0,pragm,A malac is felmászott a fára.,1,1,3.37221
adult_trog,1001,1.0,pragm,A szarvas a tévét szereli meg.,1,1,5.729415
adult_trog,1001,16.0,pragm,"De ügyes vagy, hogy eltörted a poharat.",1,1,3.78876
adult_trog,1001,11.0,pragm,A virágot már kiszínezte a bohóc.,4,1,5.75802
adult_trog,1001,4.0,pragm,Pisti egy igazi éjszakai bagoly.,3,1,3.29724
adult_trog,1001,5.0,pragm,Julcsi húga nagyon nyuszi volt a mikulásünnepségen.,1,1,3.72186
adult_trog,3304,7.0,gramm,A zöld csésze a kockás vödör fölött van.,4,1,4.25243
adult_trog,3304,14.0,gramm,"A lány azt a macskát kergeti, ami kövér.",2,1,4.687195
adult_trog,3304,10.0,gramm,"A boszorkány, aki a seprűn lovagol, ellopta a nyakláncot.",3,1,4.308995
adult_trog,3304,1.0,gramm,"A zsiráfnak van egy hosszú, kockás, fekete-fehér nyakkendője.",4,1,4.288035
adult_trog,3304,11.0,gramm,"A kislány, aki a busz elejénél áll, piros szoknyában van.",4,1,3.810345
adult_trog,3304,15.0,gramm,"A felhő, ami előtt a madár van, az lila.",4,1,3.4777
adult_trog,3304,12.0,gramm,"A sárkány, aki a szekrény mögé bújt, csokit eszik.",4,1,4.762695
adult_trog,3304,3.0,gramm,A kecskét a kakas kergeti.,2,1,3.667185
adult_trog,3304,6.0,gramm,A sárga táska a zöld széken van,3,1,2.209015
adult_trog,3304,8.0,gramm,"A fiú, aki megpuszilja a lányt, az barna hajú.",4,1,3.346465
adult_trog,3304,0.0,gramm,"A hal kék, de nem pöttyös.",1,1,2.352635
adult_trog,3304,4.0,gramm,A lány az ágyon ugrál és a macska a szőnyegen fekszik.,2,1,3.91426
adult_trog,3304,2.0,gramm,A kisfiú palacsintát süt a bohócnak.,1,1,3.16624
adult_trog,3304,9.0,gramm,"A szív, ami a négyzetben van, az pöttyös.",3,1,3.250025
adult_trog,3304,5.0,gramm,"A pöttyös labda nagyobb, mint a csíkos kancsó",2,1,3.870015
adult_trog,3304,16.0,gramm,"A róka, amit a malac kerget, az kicsi.",4,1,4.73925
adult_trog,3304,13.0,gramm,"A könyv azon a tányéron van, ami kék.",2,1,3.32234
adult_trog,3304,2.0,pragm,A szoba egy rettenetes disznóól.,3,0,3.79431
adult_trog,3304,7.0,pragm,A legtöbb malac kapott kukoricát,2,1,3.098475
adult_trog,3304,11.0,pragm,A virágot már kiszínezte a bohóc.,4,1,3.739795
adult_trog,3304,15.0,pragm,Kalapja a libának is van.,3,0,3.870385
adult_trog,3304,5.0,pragm,Julcsi húga nagyon nyuszi volt a mikulásünnepségen.,4,0,4.04018
adult_trog,3304,10.0,pragm,A fiú már elkészült a homokvárral.,4,0,3.156185
adult_trog,3304,13.0,pragm,A fiú a békát is megfogta.,4,1,2.75416
adult_trog,3304,12.0,pragm,A malac is felmászott a fára.,1,1,3.54029
adult_trog,3304,14.0,pragm,Piros lufit minden gyerek kapott.,3,1,3.421865
adult_trog,3304,16.0,pragm,"De ügyes vagy, hogy eltörted a poharat.",2,0,3.42283
adult_trog,3304,8.0,pragm,Néhány alma kigurult a kosárból.,1,1,3.39801
adult_trog,3304,9.0,pragm,A festő rajzolt egy házat.,2,1,3.387845
adult_trog,3304,0.0,pragm,A malac locsolja meg a fát.,1,0,4.097265
adult_trog,3304,6.0,pragm,A kislánynak van legalább 3 kutyája.,2,0,3.24984
adult_trog,3304,4.0,pragm,Pisti egy igazi éjszakai bagoly.,3,1,3.224225
adult_trog,3304,17.0,pragm,"Látom, lustálkodtál egész nap, meg is telt a kosár.",2,1,3.967045
adult_trog,3304,3.0,pragm,A hegedűtanár egy sárkány.,2,1,2.714825
adult_trog,3304,1.0,pragm,A szarvas a tévét szereli meg.,1,1,3.01351
adult_trog,2001,14.0,gramm,"A lány azt a macskát kergeti, ami kövér.",2,1,3.907935
adult_trog,2001,10.0,gramm,"A boszorkány, aki a seprűn lovagol, ellopta a nyakláncot.",3,1,3.95759
adult_trog,2001,3.0,gramm,A kecskét a kakas kergeti.,2,1,3.026325
adult_trog,2001,13.0,gramm,"A könyv azon a tányéron van, ami kék.",2,1,3.412535
adult_trog,2001,11.0,gramm,"A kislány, aki a busz elejénél áll, piros szoknyában van.",4,1,3.87114
adult_trog,2001,0.0,gramm,"A hal kék, de nem pöttyös.",1,1,2.49203
adult_trog,2001,12.0,gramm,"A sárkány, aki a szekrény mögé bújt, csokit eszik.",4,1,4.640655
adult_trog,2001,9.0,gramm,"A szív, ami a négyzetben van, az pöttyös.",3,1,4.042245
adult_trog,2001,2.0,gramm,A kisfiú palacsintát süt a bohócnak.,1,1,3.07348
adult_trog,2001,16.0,gramm,"A róka, amit a malac kerget, az kicsi.",2,0,3.268635
adult_trog,2001,4.0,gramm,A lány az ágyon ugrál és a macska a szőnyegen fekszik.,2,1,4.454505
adult_trog,2001,1.0,gramm,"A zsiráfnak van egy hosszú, kockás, fekete-fehér nyakkendője.",4,1,3.241905
adult_trog,2001,5.0,gramm,"A pöttyös labda nagyobb, mint a csíkos kancsó",2,1,3.0387
adult_trog,2001,7.0,gramm,A zöld csésze a kockás vödör fölött van.,4,1,3.038365
adult_trog,2001,8.0,gramm,"A fiú, aki megpuszilja a lányt, az barna hajú.",4,1,3.63887
adult_trog,2001,15.0,gramm,"A felhő, ami előtt a madár van, az lila.",4,1,3.52282
adult_trog,2001,6.0,gramm,A sárga táska a zöld széken van,3,1,2.927085
adult_trog,2001,12.0,pragm,A malac is felmászott a fára.,1,1,2.786955
adult_trog,2001,14.0,pragm,Piros lufit minden gyerek kapott.,2,0,5.242315
adult_trog,2001,8.0,pragm,Néhány alma kigurult a kosárból.,1,1,3.535065
adult_trog,2001,13.0,pragm,A fiú a békát is megfogta.,4,1,5.33305
adult_trog,2001,1.0,pragm,A szarvas a tévét szereli meg.,1,1,4.01288
adult_trog,2001,15.0,pragm,Kalapja a libának is van.,3,0,2.986595
adult_trog,2001,6.0,pragm,A kislánynak van legalább 3 kutyája.,4,1,3.924045
adult_trog,2001,3.0,pragm,A hegedűtanár egy sárkány.,4,0,3.569005
adult_trog,2001,9.0,pragm,A festő rajzolt egy házat.,2,1,3.306265
adult_trog,2001,7.0,pragm,A legtöbb malac kapott kukoricát,2,1,3.684715
adult_trog,2001,11.0,pragm,A virágot már kiszínezte a bohóc.,4,1,3.728625
adult_trog,2001,0.0,pragm,A malac locsolja meg a fát.,1,0,5.496565
adult_trog,2001,17.0,pragm,"Látom, lustálkodtál egész nap, meg is telt a kosár.",2,1,9.298475
adult_trog,2001,5.0,pragm,Julcsi húga nagyon nyuszi volt a mikulásünnepségen.,1,1,4.67574
adult_trog,2001,16.0,pragm,"De ügyes vagy, hogy eltörted a poharat.",1,1,3.43971
adult_trog,2001,2.0,pragm,A szoba egy rettenetes disznóól.,4,1,4.407195
adult_trog,2001,10.0,pragm,A fiú már elkészült a homokvárral.,2,1,5.53978
adult_trog,2001,4.0,pragm,Pisti egy igazi éjszakai bagoly.,3,1,3.173715
adult_trog,2307,12.0,gramm,"A sárkány, aki a szekrény mögé bújt, csokit eszik.",4,1,4.345
adult_trog,2307,0.0,gramm,"A hal kék, de nem pöttyös.",1,1,2.225
adult_trog,2307,8.0,gramm,"A fiú, aki megpuszilja a lányt, az barna hajú.",4,1,3.302
adult_trog,2307,15.0,gramm,"A felhő, ami előtt a madár van, az lila.",4,1,3.27
adult_trog,2307,11.0,gramm,"A kislány, aki a busz elejénél áll, piros szoknyában van.",4,1,3.488
adult_trog,2307,2.0,gramm,A kisfiú palacsintát süt a bohócnak.,1,1,2.581
adult_trog,2307,14.0,gramm,"A lány azt a macskát kergeti, ami kövér.",2,1,3.277
adult_trog,2307,1.0,gramm,"A zsiráfnak van egy hosszú, kockás, fekete-fehér nyakkendője.",4,1,2.929
adult_trog,2307,10.0,gramm,"A boszorkány, aki a seprűn lovagol, ellopta a nyakláncot.",1,0,2.967
adult_trog,2307,13.0,gramm,"A könyv azon a tányéron van, ami kék.",2,1,3.719
adult_trog,2307,3.0,gramm,A kecskét a kakas kergeti.,2,1,2.427
adult_trog,2307,6.0,gramm,A sárga táska a zöld széken van,1,0,2.203
adult_trog,2307,9.0,gramm,"A szív, ami a négyzetben van, az pöttyös.",3,1,3.838
adult_trog,2307,16.0,gramm,"A róka, amit a malac kerget, az kicsi.",4,1,3.49
adult_trog,2307,7.0,gramm,A zöld csésze a kockás vödör fölött van.,4,1,2.894
adult_trog,2307,5.0,gramm,"A pöttyös labda nagyobb, mint a csíkos kancsó",2,1,2.886
adult_trog,2307,4.0,gramm,A lány az ágyon ugrál és a macska a szőnyegen fekszik.,2,1,2.957
adult_trog,2307,5.0,pragm,Julcsi húga nagyon nyuszi volt a mikulásünnepségen.,1,1,3.245
adult_trog,2307,7.0,pragm,A legtöbb malac kapott kukoricát,2,1,5.091
adult_trog,2307,1.0,pragm,A szarvas a tévét szereli meg.,1,1,4.527
adult_trog,2307,11.0,pragm,A virágot már kiszínezte a bohóc.,4,1,6.545
adult_trog,2307,10.0,pragm,A fiú már elkészült a homokvárral.,2,1,3.539
adult_trog,2307,8.0,pragm,Néhány alma kigurult a kosárból.,1,1,2.525
adult_trog,2307,14.0,pragm,Piros lufit minden gyerek kapott.,3,1,4.227
adult_trog,2307,6.0,pragm,A kislánynak van legalább 3 kutyája.,4,1,3.548
adult_trog,2307,0.0,pragm,A malac locsolja meg a fát.,4,1,5.877
adult_trog,2307,13.0,pragm,A fiú a békát is megfogta.,4,1,2.767
adult_trog,2307,15.0,pragm,Kalapja a libának is van.,1,1,6.461
adult_trog,2307,12.0,pragm,A malac is felmászott a fára.,1,1,2.553
adult_trog,2307,16.0,pragm,"De ügyes vagy, hogy eltörted a poharat.",1,1,3.395
adult_trog,2307,2.0,pragm,A szoba egy rettenetes disznóól.,4,1,3.368
adult_trog,2307,9.0,pragm,A festő rajzolt egy házat.,2,1,3.388
adult_trog,2307,3.0,pragm,A hegedűtanár egy sárkány.,2,1,3.404
adult_trog,2307,17.0,pragm,"Látom, lustálkodtál egész nap, meg is telt a kosár.",1,0,5.207
adult_trog,2307,4.0,pragm,Pisti egy igazi éjszakai bagoly.,3,1,3.575
adult_trog,3002,7.0,gramm,A zöld csésze a kockás vödör fölött van.,4,1,3.834285
adult_trog,3002,16.0,gramm,"A róka, amit a malac kerget, az kicsi.",4,1,3.908525
adult_trog,3002,11.0,gramm,"A kislány, aki a busz elejénél áll, piros szoknyában van.",4,1,3.66386
adult_trog,3002,8.0,gramm,"A fiú, aki megpuszilja a lányt, az barna hajú.",4,1,4.42776
adult_trog,3002,12.0,gramm,"A sárkány, aki a szekrény mögé bújt, csokit eszik.",2,0,4.457325
adult_trog,3002,2.0,gramm,A kisfiú palacsintát süt a bohócnak.,1,1,5.942925
adult_trog,3002,4.0,gramm,A lány az ágyon ugrál és a macska a szőnyegen fekszik.,2,1,3.912795
adult_trog,3002,0.0,gramm,"A hal kék, de nem pöttyös.",1,1,2.470045
adult_trog,3002,9.0,gramm,"A szív, ami a négyzetben van, az pöttyös.",1,0,3.457405
adult_trog,3002,5.0,gramm,"A pöttyös labda nagyobb, mint a csíkos kancsó",2,1,3.339065
adult_trog,3002,14.0,gramm,"A lány azt a macskát kergeti, ami kövér.",2,1,4.23419
adult_trog,3002,10.0,gramm,"A boszorkány, aki a seprűn lovagol, ellopta a nyakláncot.",3,1,3.83794
adult_trog,3002,15.0,gramm,"A felhő, ami előtt a madár van, az lila.",4,1,5.09725
adult_trog,3002,6.0,gramm,A sárga táska a zöld széken van,3,1,4.093605
adult_trog,3002,13.0,gramm,"A könyv azon a tányéron van, ami kék.",2,1,3.70953
adult_trog,3002,3.0,gramm,A kecskét a kakas kergeti.,2,1,3.220915
adult_trog,3002,1.0,gramm,"A zsiráfnak van egy hosszú, kockás, fekete-fehér nyakkendője.",4,1,4.028775
adult_trog,3002,6.0,pragm,A kislánynak van legalább 3 kutyája.,4,1,7.46204
adult_trog,3002,9.0,pragm,A festő rajzolt egy házat.,2,1,4.00843
adult_trog,3002,10.0,pragm,A fiú már elkészült a homokvárral.,2,1,4.11568
adult_trog,3002,11.0,pragm,A virágot már kiszínezte a bohóc.,4,1,8.214285
adult_trog,3002,7.0,pragm,A legtöbb malac kapott kukoricát,2,1,4.60852
adult_trog,3002,12.0,pragm,A malac is felmászott a fára.,1,1,4.12321
adult_trog,3002,3.0,pragm,A hegedűtanár egy sárkány.,4,0,3.76462
adult_trog,3002,15.0,pragm,Kalapja a libának is van.,1,1,3.525695
adult_trog,3002,13.0,pragm,A fiú a békát is megfogta.,4,1,3.956355
adult_trog,3002,17.0,pragm,"Látom, lustálkodtál egész nap, meg is telt a kosár.",1,0,5.398145
adult_trog,3002,14.0,pragm,Piros lufit minden gyerek kapott.,3,1,4.735105
adult_trog,3002,16.0,pragm,"De ügyes vagy, hogy eltörted a poharat.",1,1,3.76425
adult_trog,3002,8.0,pragm,Néhány alma kigurult a kosárból.,1,1,3.49079
adult_trog,3002,5.0,pragm,Julcsi húga nagyon nyuszi volt a mikulásünnepségen.,1,1,3.557625
adult_trog,3002,1.0,pragm,A szarvas a tévét szereli meg.,1,1,4.7545
adult_trog,3002,0.0,pragm,A malac locsolja meg a fát.,4,1,5.27635
adult_trog,3002,2.0,pragm,A szoba egy rettenetes disznóól.,4,1,4.04798
adult_trog,3002,4.0,pragm,Pisti egy igazi éjszakai bagoly.,3,1,2.79284
adult_trog,1303,1.0,gramm,"A zsiráfnak van egy hosszú, kockás, fekete-fehér nyakkendője.",4,1,4.94437
adult_trog,1303,5.0,gramm,"A pöttyös labda nagyobb, mint a csíkos kancsó",2,1,3.85701
adult_trog,1303,6.0,gramm,A sárga táska a zöld széken van,3,1,4.92419
adult_trog,1303,10.0,gramm,"A boszorkány, aki a seprűn lovagol, ellopta a nyakláncot.",3,1,4.742595
adult_trog,1303,16.0,gramm,"A róka, amit a malac kerget, az kicsi.",4,1,4.51446
adult_trog,1303,12.0,gramm,"A sárkány, aki a szekrény mögé bújt, csokit eszik.",4,1,6.832775
adult_trog,1303,4.0,gramm,A lány az ágyon ugrál és a macska a szőnyegen fekszik.,2,1,3.7908
adult_trog,1303,2.0,gramm,A kisfiú palacsintát süt a bohócnak.,1,1,3.65486
adult_trog,1303,0.0,gramm,"A hal kék, de nem pöttyös.",1,1,2.493475
adult_trog,1303,3.0,gramm,A kecskét a kakas kergeti.,2,1,4.18176
adult_trog,1303,9.0,gramm,"A szív, ami a négyzetben van, az pöttyös.",3,1,6.33803
adult_trog,1303,13.0,gramm,"A könyv azon a tányéron van, ami kék.",2,1,10.16552
adult_trog,1303,14.0,gramm,"A lány azt a macskát kergeti, ami kövér.",2,1,7.085755
adult_trog,1303,11.0,gramm,"A kislány, aki a busz elejénél áll, piros szoknyában van.",4,1,4.49477
adult_trog,1303,7.0,gramm,A zöld csésze a kockás vödör fölött van.,4,1,4.495705
adult_trog,1303,8.0,gramm,"A fiú, aki megpuszilja a lányt, az barna hajú.",4,1,4.48218
adult_trog,1303,15.0,gramm,"A felhő, ami előtt a madár van, az lila.",4,1,4.79392
adult_trog,1303,14.0,pragm,Piros lufit minden gyerek kapott.,3,1,18.534145
adult_trog,1303,16.0,pragm,"De ügyes vagy, hogy eltörted a poharat.",1,1,4.24226
adult_trog,1303,1.0,pragm,A szarvas a tévét szereli meg.,1,1,6.861315
adult_trog,1303,10.0,pragm,A fiú már elkészült a homokvárral.,2,1,6.71038
adult_trog,1303,13.0,pragm,A fiú a békát is megfogta.,4,1,14.04327
adult_trog,1303,9.0,pragm,A festő rajzolt egy házat.,2,1,4.197625
adult_trog,1303,3.0,pragm,A hegedűtanár egy sárkány.,2,1,4.953955
adult_trog,1303,2.0,pragm,A szoba egy rettenetes disznóól.,4,1,4.7166
adult_trog,1303,0.0,pragm,A malac locsolja meg a fát.,4,1,4.24873
adult_trog,1303,8.0,pragm,Néhány alma kigurult a kosárból.,1,1,5.573565
adult_trog,1303,17.0,pragm,"Látom, lustálkodtál egész nap, meg is telt a kosár.",2,1,9.724205
adult_trog,1303,11.0,pragm,A virágot már kiszínezte a bohóc.,4,1,12.33479
adult_trog,1303,5.0,pragm,Julcsi húga nagyon nyuszi volt a mikulásünnepségen.,1,1,5.42706
adult_trog,1303,6.0,pragm,A kislánynak van legalább 3 kutyája.,4,1,6.380525
adult_trog,1303,12.0,pragm,A malac is felmászott a fára.,1,1,4.964365
adult_trog,1303,4.0,pragm,Pisti egy igazi éjszakai bagoly.,3,1,3.249875
adult_trog,1303,15.0,pragm,Kalapja a libának is van.,1,1,4.14568
adult_trog,1303,7.0,pragm,A legtöbb malac kapott kukoricát,2,1,7.073305
adult_trog,1305,14.0,gramm,"A lány azt a macskát kergeti, ami kövér.",2,1,4.632725
adult_trog,1305,0.0,gramm,"A hal kék, de nem pöttyös.",1,1,2.36321
adult_trog,1305,7.0,gramm,A zöld csésze a kockás vödör fölött van.,4,1,3.692375
adult_trog,1305,10.0,gramm,"A boszorkány, aki a seprűn lovagol, ellopta a nyakláncot.",2,0,4.580095
adult_trog,1305,13.0,gramm,"A könyv azon a tányéron van, ami kék.",2,1,3.2285
adult_trog,1305,8.0,gramm,"A fiú, aki megpuszilja a lányt, az barna hajú.",4,1,3.293615
adult_trog,1305,15.0,gramm,"A felhő, ami előtt a madár van, az lila.",4,1,3.404635
adult_trog,1305,9.0,gramm,"A szív, ami a négyzetben van, az pöttyös.",3,1,3.96828
adult_trog,1305,16.0,gramm,"A róka, amit a malac kerget, az kicsi.",4,1,3.29512
adult_trog,1305,5.0,gramm,"A pöttyös labda nagyobb, mint a csíkos kancsó",3,0,3.483325
adult_trog,1305,1.0,gramm,"A zsiráfnak van egy hosszú, kockás, fekete-fehér nyakkendője.",4,1,3.843635
adult_trog,1305,6.0,gramm,A sárga táska a zöld széken van,3,1,3.62652
adult_trog,1305,3.0,gramm,A kecskét a kakas kergeti.,3,0,3.41636
adult_trog,1305,2.0,gramm,A kisfiú palacsintát süt a bohócnak.,1,1,5.54627
adult_trog,1305,12.0,gramm,"A sárkány, aki a szekrény mögé bújt, csokit eszik.",4,1,8.714705
adult_trog,1305,4.0,gramm,A lány az ágyon ugrál és a macska a szőnyegen fekszik.,2,1,4.01464
adult_trog,1305,11.0,gramm,"A kislány, aki a busz elejénél áll, piros szoknyában van.",4,1,4.25623
adult_trog,1305,3.0,pragm,A hegedűtanár egy sárkány.,4,0,5.145405
adult_trog,1305,8.0,pragm,Néhány alma kigurult a kosárból.,1,1,6.406295
adult_trog,1305,5.0,pragm,Julcsi húga nagyon nyuszi volt a mikulásünnepségen.,1,1,5.384
adult_trog,1305,7.0,pragm,A legtöbb malac kapott kukoricát,2,1,7.155985
adult_trog,1305,9.0,pragm,A festő rajzolt egy házat.,2,1,4.580435
adult_trog,1305,1.0,pragm,A szarvas a tévét szereli meg.,1,1,14.556355
adult_trog,1305,14.0,pragm,Piros lufit minden gyerek kapott.,3,1,4.22323
adult_trog,1305,10.0,pragm,A fiú már elkészült a homokvárral.,2,1,8.129245
adult_trog,1305,4.0,pragm,Pisti egy igazi éjszakai bagoly.,3,1,3.577705
adult_trog,1305,13.0,pragm,A fiú a békát is megfogta.,4,1,4.51315
adult_trog,1305,17.0,pragm,"Látom, lustálkodtál egész nap, meg is telt a kosár.",2,1,15.841885
adult_trog,1305,6.0,pragm,A kislánynak van legalább 3 kutyája.,4,1,5.287185
adult_trog,1305,15.0,pragm,Kalapja a libának is van.,1,1,8.27272
adult_trog,1305,16.0,pragm,"De ügyes vagy, hogy eltörted a poharat.",2,0,3.200835
adult_trog,1305,2.0,pragm,A szoba egy rettenetes disznóól.,4,1,3.708825
adult_trog,1305,12.0,pragm,A malac is felmászott a fára.,1,1,2.936845
adult_trog,1305,0.0,pragm,A malac locsolja meg a fát.,4,1,4.850985
adult_trog,1305,11.0,pragm,A virágot már kiszínezte a bohóc.,4,1,7.798115
adult_trog,1310,16.0,gramm,"A róka, amit a malac kerget, az kicsi.",4,1,4.037555
adult_trog,1310,4.0,gramm,A lány az ágyon ugrál és a macska a szőnyegen fekszik.,2,1,3.894005
adult_trog,1310,0.0,gramm,"A hal kék, de nem pöttyös.",1,1,2.353445
adult_trog,1310,11.0,gramm,"A kislány, aki a busz elejénél áll, piros szoknyában van.",3,0,4.09754
adult_trog,1310,3.0,gramm,A kecskét a kakas kergeti.,2,1,4.99003
adult_trog,1310,15.0,gramm,"A felhő, ami előtt a madár van, az lila.",1,0,6.272095
adult_trog,1310,9.0,gramm,"A szív, ami a négyzetben van, az pöttyös.",4,0,8.529865
adult_trog,1310,12.0,gramm,"A sárkány, aki a szekrény mögé bújt, csokit eszik.",4,1,6.310105
adult_trog,1310,1.0,gramm,"A zsiráfnak van egy hosszú, kockás, fekete-fehér nyakkendője.",4,1,4.11153
adult_trog,1310,5.0,gramm,"A pöttyös labda nagyobb, mint a csíkos kancsó",2,1,4.765325
adult_trog,1310,6.0,gramm,A sárga táska a zöld széken van,3,1,3.748205
adult_trog,1310,13.0,gramm,"A könyv azon a tányéron van, ami kék.",2,1,3.863965
adult_trog,1310,2.0,gramm,A kisfiú palacsintát süt a bohócnak.,1,1,3.59533
adult_trog,1310,10.0,gramm,"A boszorkány, aki a seprűn lovagol, ellopta a nyakláncot.",1,0,4.820795
adult_trog,1310,7.0,gramm,A zöld csésze a kockás vödör fölött van.,4,1,3.68669
adult_trog,1310,8.0,gramm,"A fiú, aki megpuszilja a lányt, az barna hajú.",4,1,4.47028
adult_trog,1310,14.0,gramm,"A lány azt a macskát kergeti, ami kövér.",2,1,5.998995
adult_trog,1310,7.0,pragm,A legtöbb malac kapott kukoricát,3,0,6.892095
adult_trog,1310,4.0,pragm,Pisti egy igazi éjszakai bagoly.,3,1,5.41492
adult_trog,1310,16.0,pragm,"De ügyes vagy, hogy eltörted a poharat.",1,1,6.82065
adult_trog,1310,10.0,pragm,A fiú már elkészült a homokvárral.,2,1,5.82842
adult_trog,1310,1.0,pragm,A szarvas a tévét szereli meg.,1,1,6.28302
adult_trog,1310,6.0,pragm,A kislánynak van legalább 3 kutyája.,4,1,6.40914
adult_trog,1310,0.0,pragm,A malac locsolja meg a fát.,4,1,5.278605
adult_trog,1310,13.0,pragm,A fiú a békát is megfogta.,4,1,4.222975
adult_trog,1310,8.0,pragm,Néhány alma kigurult a kosárból.,1,1,5.51527
adult_trog,1310,2.0,pragm,A szoba egy rettenetes disznóól.,4,1,4.419745
adult_trog,1310,14.0,pragm,Piros lufit minden gyerek kapott.,2,0,6.17477
adult_trog,1310,17.0,pragm,"Látom, lustálkodtál egész nap, meg is telt a kosár.",2,1,16.656745
adult_trog,1310,5.0,pragm,Julcsi húga nagyon nyuszi volt a mikulásünnepségen.,1,1,3.818425
adult_trog,1310,9.0,pragm,A festő rajzolt egy házat.,2,1,5.706895
adult_trog,1310,11.0,pragm,A virágot már kiszínezte a bohóc.,4,1,13.158595
adult_trog,1310,12.0,pragm,A malac is felmászott a fára.,1,1,3.306705
adult_trog,1310,3.0,pragm,A hegedűtanár egy sárkány.,2,1,5.43661
adult_trog,1310,15.0,pragm,Kalapja a libának is van.,1,1,2.766015
adult_trog,2301,9.0,gramm,"A szív, ami a négyzetben van, az pöttyös.",3,1,4.868405
adult_trog,2301,6.0,gramm,A sárga táska a zöld széken van,3,1,3.66407
adult_trog,2301,8.0,gramm,"A fiú, aki megpuszilja a lányt, az barna hajú.",4,1,4.14262
adult_trog,2301,0.0,gramm,"A hal kék, de nem pöttyös.",1,1,2.69328
adult_trog,2301,1.0,gramm,"A zsiráfnak van egy hosszú, kockás, fekete-fehér nyakkendője.",4,1,4.333305
adult_trog,2301,3.0,gramm,A kecskét a kakas kergeti.,2,1,7.879115
adult_trog,2301,13.0,gramm,"A könyv azon a tányéron van, ami kék.",2,1,4.99877
adult_trog,2301,10.0,gramm,"A boszorkány, aki a seprűn lovagol, ellopta a nyakláncot.",3,1,6.361125
adult_trog,2301,7.0,gramm,A zöld csésze a kockás vödör fölött van.,4,1,8.244765
adult_trog,2301,11.0,gramm,"A kislány, aki a busz elejénél áll, piros szoknyában van.",4,1,4.41228
adult_trog,2301,12.0,gramm,"A sárkány, aki a szekrény mögé bújt, csokit eszik.",4,1,4.989005
adult_trog,2301,4.0,gramm,A lány az ágyon ugrál és a macska a szőnyegen fekszik.,2,1,5.993935
adult_trog,2301,15.0,gramm,"A felhő, ami előtt a madár van, az lila.",4,1,6.03588
adult_trog,2301,2.0,gramm,A kisfiú palacsintát süt a bohócnak.,1,1,3.59023
adult_trog,2301,16.0,gramm,"A róka, amit a malac kerget, az kicsi.",4,1,6.724865
adult_trog,2301,5.0,gramm,"A pöttyös labda nagyobb, mint a csíkos kancsó",2,1,4.372445
adult_trog,2301,14.0,gramm,"A lány azt a macskát kergeti, ami kövér.",2,1,5.459175
adult_trog,2301,3.0,pragm,A hegedűtanár egy sárkány.,4,0,4.465265
adult_trog,2301,5.0,pragm,Julcsi húga nagyon nyuszi volt a mikulásünnepségen.,1,1,5.288965
adult_trog,2301,8.0,pragm,Néhány alma kigurult a kosárból.,1,1,7.758905
adult_trog,2301,7.0,pragm,A legtöbb malac kapott kukoricát,2,1,5.670455
adult_trog,2301,2.0,pragm,A szoba egy rettenetes disznóól.,4,1,6.24963
adult_trog,2301,6.0,pragm,A kislánynak van legalább 3 kutyája.,4,1,9.11411
adult_trog,2301,17.0,pragm,"Látom, lustálkodtál egész nap, meg is telt a kosár.",2,1,8.59903
adult_trog,2301,0.0,pragm,A malac locsolja meg a fát.,4,1,9.70094
adult_trog,2301,4.0,pragm,Pisti egy igazi éjszakai bagoly.,3,1,4.611655
adult_trog,2301,9.0,pragm,A festő rajzolt egy házat.,2,1,3.80034
adult_trog,2301,14.0,pragm,Piros lufit minden gyerek kapott.,2,0,4.34427
adult_trog,2301,10.0,pragm,A fiú már elkészült a homokvárral.,2,1,13.85363
adult_trog,2301,15.0,pragm,Kalapja a libának is van.,1,1,3.60097
adult_trog,2301,16.0,pragm,"De ügyes vagy, hogy eltörted a poharat.",1,1,6.544895
adult_trog,2301,13.0,pragm,A fiú a békát is megfogta.,4,1,3.38269
adult_trog,2301,1.0,pragm,A szarvas a tévét szereli meg.,1,1,11.44098
adult_trog,2301,12.0,pragm,A malac is felmászott a fára.,1,1,3.68578
adult_trog,2301,11.0,pragm,A virágot már kiszínezte a bohóc.,4,1,7.518495
adult_trog,1307,4.0,gramm,A lány az ágyon ugrál és a macska a szőnyegen fekszik.,2,1,3.771655
adult_trog,1307,9.0,gramm,"A szív, ami a négyzetben van, az pöttyös.",1,0,4.40744
adult_trog,1307,6.0,gramm,A sárga táska a zöld széken van,4,0,3.75611
adult_trog,1307,1.0,gramm,"A zsiráfnak van egy hosszú, kockás, fekete-fehér nyakkendője.",4,1,4.168785
adult_trog,1307,12.0,gramm,"A sárkány, aki a szekrény mögé bújt, csokit eszik.",3,0,5.48174
adult_trog,1307,11.0,gramm,"A kislány, aki a busz elejénél áll, piros szoknyában van.",4,1,6.03209
adult_trog,1307,5.0,gramm,"A pöttyös labda nagyobb, mint a csíkos kancsó",2,1,3.43427
adult_trog,1307,16.0,gramm,"A róka, amit a malac kerget, az kicsi.",4,1,4.081055
adult_trog,1307,3.0,gramm,A kecskét a kakas kergeti.,2,1,3.080445
adult_trog,1307,7.0,gramm,A zöld csésze a kockás vödör fölött van.,4,1,5.07587
adult_trog,1307,10.0,gramm,"A boszorkány, aki a seprűn lovagol, ellopta a nyakláncot.",3,1,5.151075
adult_trog,1307,15.0,gramm,"A felhő, ami előtt a madár van, az lila.",4,1,3.64709
adult_trog,1307,8.0,gramm,"A fiú, aki megpuszilja a lányt, az barna hajú.",4,1,4.44805
adult_trog,1307,13.0,gramm,"A könyv azon a tányéron van, ami kék.",2,1,4.043615
adult_trog,1307,0.0,gramm,"A hal kék, de nem pöttyös.",4,0,4.33119
adult_trog,1307,2.0,gramm,A kisfiú palacsintát süt a bohócnak.,4,0,8.07094
adult_trog,1307,14.0,gramm,"A lány azt a macskát kergeti, ami kövér.",2,1,4.15361
adult_trog,1307,1.0,pragm,A szarvas a tévét szereli meg.,1,1,3.328395
adult_trog,1307,11.0,pragm,A virágot már kiszínezte a bohóc.,3,0,6.30633
adult_trog,1307,17.0,pragm,"Látom, lustálkodtál egész nap, meg is telt a kosár.",4,0,2.96312
adult_trog,1307,3.0,pragm,A hegedűtanár egy sárkány.,2,1,4.775085
adult_trog,1307,13.0,pragm,A fiú a békát is megfogta.,4,1,4.53704
adult_trog,1307,6.0,pragm,A kislánynak van legalább 3 kutyája.,4,1,4.657665
adult_trog,1307,0.0,pragm,A malac locsolja meg a fát.,3,0,3.129985
adult_trog,1307,2.0,pragm,A szoba egy rettenetes disznóól.,4,1,4.530165
adult_trog,1307,7.0,pragm,A legtöbb malac kapott kukoricát,3,0,5.01245
adult_trog,1307,15.0,pragm,Kalapja a libának is van.,3,0,4.999045
adult_trog,1307,4.0,pragm,Pisti egy igazi éjszakai bagoly.,3,1,4.72429
adult_trog,1307,10.0,pragm,A fiú már elkészült a homokvárral.,2,1,6.53287
adult_trog,1307,14.0,pragm,Piros lufit minden gyerek kapott.,3,1,4.95654
adult_trog,1307,8.0,pragm,Néhány alma kigurult a kosárból.,1,1,6.848895
adult_trog,1307,5.0,pragm,Julcsi húga nagyon nyuszi volt a mikulásünnepségen.,1,1,4.871105
adult_trog,1307,12.0,pragm,A malac is felmászott a fára.,1,1,3.23968
adult_trog,1307,16.0,pragm,"De ügyes vagy, hogy eltörted a poharat.",3,0,6.01891
adult_trog,1307,9.0,pragm,A festő rajzolt egy házat.,2,1,4.78902
adult_trog,1306,0.0,gramm,"A hal kék, de nem pöttyös.",1,1,3.201455
adult_trog,1306,10.0,gramm,"A boszorkány, aki a seprűn lovagol, ellopta a nyakláncot.",3,1,4.820005
adult_trog,1306,16.0,gramm,"A róka, amit a malac kerget, az kicsi.",4,1,4.90356
adult_trog,1306,9.0,gramm,"A szív, ami a négyzetben van, az pöttyös.",3,1,4.234265
adult_trog,1306,13.0,gramm,"A könyv azon a tányéron van, ami kék.",3,0,5.377525
adult_trog,1306,3.0,gramm,A kecskét a kakas kergeti.,2,1,4.09051
adult_trog,1306,12.0,gramm,"A sárkány, aki a szekrény mögé bújt, csokit eszik.",4,1,5.119045
adult_trog,1306,6.0,gramm,A sárga táska a zöld széken van,3,1,2.67267
adult_trog,1306,15.0,gramm,"A felhő, ami előtt a madár van, az lila.",4,1,4.31154
adult_trog,1306,8.0,gramm,"A fiú, aki megpuszilja a lányt, az barna hajú.",4,1,3.875905
adult_trog,1306,2.0,gramm,A kisfiú palacsintát süt a bohócnak.,1,1,3.572675
adult_trog,1306,7.0,gramm,A zöld csésze a kockás vödör fölött van.,4,1,4.31882
adult_trog,1306,11.0,gramm,"A kislány, aki a busz elejénél áll, piros szoknyában van.",4,1,4.30209
adult_trog,1306,5.0,gramm,"A pöttyös labda nagyobb, mint a csíkos kancsó",2,1,3.95108
adult_trog,1306,14.0,gramm,"A lány azt a macskát kergeti, ami kövér.",2,1,4.654705
adult_trog,1306,4.0,gramm,A lány az ágyon ugrál és a macska a szőnyegen fekszik.,2,1,3.99924
adult_trog,1306,1.0,gramm,"A zsiráfnak van egy hosszú, kockás, fekete-fehér nyakkendője.",4,1,4.241205
adult_trog,1306,16.0,pragm,"De ügyes vagy, hogy eltörted a poharat.",2,0,4.13595
adult_trog,1306,4.0,pragm,Pisti egy igazi éjszakai bagoly.,1,0,3.617575
adult_trog,1306,15.0,pragm,Kalapja a libának is van.,2,0,6.962025
adult_trog,1306,3.0,pragm,A hegedűtanár egy sárkány.,4,0,3.678275
adult_trog,1306,11.0,pragm,A virágot már kiszínezte a bohóc.,4,1,16.814075
adult_trog,1306,6.0,pragm,A kislánynak van legalább 3 kutyája.,4,1,5.29788
adult_trog,1306,12.0,pragm,A malac is felmászott a fára.,1,1,3.98738
adult_trog,1306,9.0,pragm,A festő rajzolt egy házat.,2,1,3.235195
adult_trog,1306,2.0,pragm,A szoba egy rettenetes disznóól.,3,0,7.053955
adult_trog,1306,8.0,pragm,Néhány alma kigurult a kosárból.,1,1,3.928325
adult_trog,1306,14.0,pragm,Piros lufit minden gyerek kapott.,2,0,5.912575
adult_trog,1306,10.0,pragm,A fiú már elkészült a homokvárral.,2,1,10.141165
adult_trog,1306,0.0,pragm,A malac locsolja meg a fát.,4,1,4.817315
adult_trog,1306,13.0,pragm,A fiú a békát is megfogta.,4,1,5.146435
adult_trog,1306,7.0,pragm,A legtöbb malac kapott kukoricát,2,1,4.82072
adult_trog,1306,1.0,pragm,A szarvas a tévét szereli meg.,1,1,5.34324
adult_trog,1306,5.0,pragm,Julcsi húga nagyon nyuszi volt a mikulásünnepségen.,1,1,5.1537
adult_trog,1306,17.0,pragm,"Látom, lustálkodtál egész nap, meg is telt a kosár.",2,1,7.06687
adult_trog,2306,3.0,gramm,A kecskét a kakas kergeti.,2,1,3.390395
adult_trog,2306,16.0,gramm,"A róka, amit a malac kerget, az kicsi.",4,1,5.53236
adult_trog,2306,2.0,gramm,A kisfiú palacsintát süt a bohócnak.,1,1,3.222635
adult_trog,2306,9.0,gramm,"A szív, ami a négyzetben van, az pöttyös.",3,1,3.780035
adult_trog,2306,11.0,gramm,"A kislány, aki a busz elejénél áll, piros szoknyában van.",4,1,5.193835
adult_trog,2306,14.0,gramm,"A lány azt a macskát kergeti, ami kövér.",2,1,3.76463
adult_trog,2306,5.0,gramm,"A pöttyös labda nagyobb, mint a csíkos kancsó",2,1,4.39904
adult_trog,2306,4.0,gramm,A lány az ágyon ugrál és a macska a szőnyegen fekszik.,2,1,3.600715
adult_trog,2306,15.0,gramm,"A felhő, ami előtt a madár van, az lila.",4,1,3.996165
adult_trog,2306,6.0,gramm,A sárga táska a zöld széken van,3,1,3.141765
adult_trog,2306,7.0,gramm,A zöld csésze a kockás vödör fölött van.,4,1,3.335895
adult_trog,2306,8.0,gramm,"A fiú, aki megpuszilja a lányt, az barna hajú.",4,1,3.12952
adult_trog,2306,10.0,gramm,"A boszorkány, aki a seprűn lovagol, ellopta a nyakláncot.",3,1,4.569535
adult_trog,2306,1.0,gramm,"A zsiráfnak van egy hosszú, kockás, fekete-fehér nyakkendője.",4,1,3.67982
adult_trog,2306,12.0,gramm,"A sárkány, aki a szekrény mögé bújt, csokit eszik.",4,1,8.900515
adult_trog,2306,13.0,gramm,"A könyv azon a tányéron van, ami kék.",2,1,3.35714
adult_trog,2306,0.0,gramm,"A hal kék, de nem pöttyös.",1,1,2.660395
adult_trog,2306,11.0,pragm,A virágot már kiszínezte a bohóc.,4,1,7.536625
adult_trog,2306,7.0,pragm,A legtöbb malac kapott kukoricát,2,1,8.046045
adult_trog,2306,0.0,pragm,A malac locsolja meg a fát.,2,0,6.054955
adult_trog,2306,12.0,pragm,A malac is felmászott a fára.,1,1,2.922175
adult_trog,2306,6.0,pragm,A kislánynak van legalább 3 kutyája.,4,1,5.98525
adult_trog,2306,2.0,pragm,A szoba egy rettenetes disznóól.,4,1,3.630665
adult_trog,2306,14.0,pragm,Piros lufit minden gyerek kapott.,3,1,8.95326
adult_trog,2306,1.0,pragm,A szarvas a tévét szereli meg.,1,1,4.470405
adult_trog,2306,10.0,pragm,A fiú már elkészült a homokvárral.,2,1,7.606835
adult_trog,2306,16.0,pragm,"De ügyes vagy, hogy eltörted a poharat.",1,1,4.68173
adult_trog,2306,13.0,pragm,A fiú a békát is megfogta.,4,1,4.550575
adult_trog,2306,17.0,pragm,"Látom, lustálkodtál egész nap, meg is telt a kosár.",2,1,7.96841
adult_trog,2306,15.0,pragm,Kalapja a libának is van.,1,1,3.1793
adult_trog,2306,4.0,pragm,Pisti egy igazi éjszakai bagoly.,3,1,3.910665
adult_trog,2306,3.0,pragm,A hegedűtanár egy sárkány.,4,0,2.71274
adult_trog,2306,8.0,pragm,Néhány alma kigurult a kosárból.,1,1,4.26001
adult_trog,2306,9.0,pragm,A festő rajzolt egy házat.,4,0,4.379905
adult_trog,2306,5.0,pragm,Julcsi húga nagyon nyuszi volt a mikulásünnepségen.,1,1,3.354185
adult_trog,3308,13.0,gramm,"A könyv azon a tányéron van, ami kék.",2,1,3.663795
adult_trog,3308,16.0,gramm,"A róka, amit a malac kerget, az kicsi.",4,1,5.66342
adult_trog,3308,15.0,gramm,"A felhő, ami előtt a madár van, az lila.",4,1,5.59955
adult_trog,3308,7.0,gramm,A zöld csésze a kockás vödör fölött van.,4,1,4.71118
adult_trog,3308,11.0,gramm,"A kislány, aki a busz elejénél áll, piros szoknyában van.",4,1,5.16302
adult_trog,3308,6.0,gramm,A sárga táska a zöld széken van,3,1,3.34077
adult_trog,3308,3.0,gramm,A kecskét a kakas kergeti.,2,1,3.016145
adult_trog,3308,14.0,gramm,"A lány azt a macskát kergeti, ami kövér.",2,1,5.566765
adult_trog,3308,1.0,gramm,"A zsiráfnak van egy hosszú, kockás, fekete-fehér nyakkendője.",4,1,4.9504
adult_trog,3308,2.0,gramm,A kisfiú palacsintát süt a bohócnak.,1,1,3.54331
adult_trog,3308,4.0,gramm,A lány az ágyon ugrál és a macska a szőnyegen fekszik.,2,1,3.793795
adult_trog,3308,12.0,gramm,"A sárkány, aki a szekrény mögé bújt, csokit eszik.",4,1,9.405715
adult_trog,3308,5.0,gramm,"A pöttyös labda nagyobb, mint a csíkos kancsó",2,1,2.935855
adult_trog,3308,8.0,gramm,"A fiú, aki megpuszilja a lányt, az barna hajú.",4,1,3.20072
adult_trog,3308,0.0,gramm,"A hal kék, de nem pöttyös.",1,1,2.89749
adult_trog,3308,9.0,gramm,"A szív, ami a négyzetben van, az pöttyös.",3,1,4.030365
adult_trog,3308,10.0,gramm,"A boszorkány, aki a seprűn lovagol, ellopta a nyakláncot.",3,1,4.81015
adult_trog,3308,10.0,pragm,A fiú már elkészült a homokvárral.,2,1,12.94323
adult_trog,3308,17.0,pragm,"Látom, lustálkodtál egész nap, meg is telt a kosár.",2,1,5.960695
adult_trog,3308,16.0,pragm,"De ügyes vagy, hogy eltörted a poharat.",2,0,4.67903
adult_trog,3308,0.0,pragm,A malac locsolja meg a fát.,2,0,7.70486
adult_trog,3308,8.0,pragm,Néhány alma kigurult a kosárból.,1,1,5.43191
adult_trog,3308,13.0,pragm,A fiú a békát is megfogta.,3,0,7.293145
adult_trog,3308,5.0,pragm,Julcsi húga nagyon nyuszi volt a mikulásünnepségen.,1,1,5.527555
adult_trog,3308,12.0,pragm,A malac is felmászott a fára.,1,1,4.018315
adult_trog,3308,1.0,pragm,A szarvas a tévét szereli meg.,1,1,5.54987
adult_trog,3308,4.0,pragm,Pisti egy igazi éjszakai bagoly.,3,1,3.47608
adult_trog,3308,7.0,pragm,A legtöbb malac kapott kukoricát,2,1,5.038745
adult_trog,3308,6.0,pragm,A kislánynak van legalább 3 kutyája.,4,1,7.10149
adult_trog,3308,3.0,pragm,A hegedűtanár egy sárkány.,2,1,3.351415
adult_trog,3308,2.0,pragm,A szoba egy rettenetes disznóól.,4,1,3.897445
adult_trog,3308,9.0,pragm,A festő rajzolt egy házat.,2,1,6.132885
adult_trog,3308,11.0,pragm,A virágot már kiszínezte a bohóc.,4,1,5.637615
adult_trog,3308,15.0,pragm,Kalapja a libának is van.,1,1,5.19369
adult_trog,3308,14.0,pragm,Piros lufit minden gyerek kapott.,3,1,7.36964
adult_trog,1309,5.0,gramm,"A pöttyös labda nagyobb, mint a csíkos kancsó",2,1,5.02477
adult_trog,1309,8.0,gramm,"A fiú, aki megpuszilja a lányt, az barna hajú.",4,1,6.9449
adult_trog,1309,6.0,gramm,A sárga táska a zöld széken van,3,1,3.186005
adult_trog,1309,2.0,gramm,A kisfiú palacsintát süt a bohócnak.,1,1,5.52025
adult_trog,1309,4.0,gramm,A lány az ágyon ugrál és a macska a szőnyegen fekszik.,2,1,4.008475
adult_trog,1309,11.0,gramm,"A kislány, aki a busz elejénél áll, piros szoknyában van.",4,1,4.190875
adult_trog,1309,14.0,gramm,"A lány azt a macskát kergeti, ami kövér.",2,1,5.199415
adult_trog,1309,3.0,gramm,A kecskét a kakas kergeti.,2,1,2.93042
adult_trog,1309,12.0,gramm,"A sárkány, aki a szekrény mögé bújt, csokit eszik.",4,1,7.44467
adult_trog,1309,9.0,gramm,"A szív, ami a négyzetben van, az pöttyös.",3,1,4.83396
adult_trog,1309,13.0,gramm,"A könyv azon a tányéron van, ami kék.",2,1,5.591555
adult_trog,1309,7.0,gramm,A zöld csésze a kockás vödör fölött van.,4,1,4.087555
adult_trog,1309,1.0,gramm,"A zsiráfnak van egy hosszú, kockás, fekete-fehér nyakkendője.",4,1,4.165225
adult_trog,1309,10.0,gramm,"A boszorkány, aki a seprűn lovagol, ellopta a nyakláncot.",3,1,5.345005
adult_trog,1309,15.0,gramm,"A felhő, ami előtt a madár van, az lila.",4,1,4.983865
adult_trog,1309,16.0,gramm,"A róka, amit a malac kerget, az kicsi.",4,1,4.439095
adult_trog,1309,0.0,gramm,"A hal kék, de nem pöttyös.",1,1,2.794275
adult_trog,1309,15.0,pragm,Kalapja a libának is van.,2,0,6.500755
adult_trog,1309,9.0,pragm,A festő rajzolt egy házat.,2,1,5.97371
adult_trog,1309,8.0,pragm,Néhány alma kigurult a kosárból.,1,1,5.99792
adult_trog,1309,11.0,pragm,A virágot már kiszínezte a bohóc.,4,1,7.89602
adult_trog,1309,0.0,pragm,A malac locsolja meg a fát.,4,1,7.179545
adult_trog,1309,17.0,pragm,"Látom, lustálkodtál egész nap, meg is telt a kosár.",2,1,9.06422
adult_trog,1309,7.0,pragm,A legtöbb malac kapott kukoricát,2,1,8.213665
adult_trog,1309,10.0,pragm,A fiú már elkészült a homokvárral.,2,1,5.732385
adult_trog,1309,13.0,pragm,A fiú a békát is megfogta.,4,1,5.16091
adult_trog,1309,5.0,pragm,Julcsi húga nagyon nyuszi volt a mikulásünnepségen.,1,1,5.409965
adult_trog,1309,1.0,pragm,A szarvas a tévét szereli meg.,1,1,5.95266
adult_trog,1309,14.0,pragm,Piros lufit minden gyerek kapott.,3,1,8.83688
adult_trog,1309,12.0,pragm,A malac is felmászott a fára.,1,1,3.09707
adult_trog,1309,6.0,pragm,A kislánynak van legalább 3 kutyája.,4,1,4.519715
adult_trog,1309,4.0,pragm,Pisti egy igazi éjszakai bagoly.,3,1,5.440615
adult_trog,1309,16.0,pragm,"De ügyes vagy, hogy eltörted a poharat.",1,1,6.95775
adult_trog,1309,3.0,pragm,A hegedűtanár egy sárkány.,2,1,5.744745
adult_trog,1309,2.0,pragm,A szoba egy rettenetes disznóól.,4,1,3.537705
adult_trog,3307,15.0,gramm,"A felhő, ami előtt a madár van, az lila.",2,0,6.533195
adult_trog,3307,5.0,gramm,"A pöttyös labda nagyobb, mint a csíkos kancsó",2,1,7.924835
adult_trog,3307,6.0,gramm,A sárga táska a zöld széken van,3,1,3.526135
adult_trog,3307,9.0,gramm,"A szív, ami a négyzetben van, az pöttyös.",3,1,4.5646
adult_trog,3307,7.0,gramm,A zöld csésze a kockás vödör fölött van.,4,1,4.809375
adult_trog,3307,1.0,gramm,"A zsiráfnak van egy hosszú, kockás, fekete-fehér nyakkendője.",4,1,3.704985
adult_trog,3307,16.0,gramm,"A róka, amit a malac kerget, az kicsi.",4,1,4.02687
adult_trog,3307,12.0,gramm,"A sárkány, aki a szekrény mögé bújt, csokit eszik.",4,1,6.948045
adult_trog,3307,13.0,gramm,"A könyv azon a tányéron van, ami kék.",2,1,4.83531
adult_trog,3307,4.0,gramm,A lány az ágyon ugrál és a macska a szőnyegen fekszik.,2,1,4.365375
adult_trog,3307,2.0,gramm,A kisfiú palacsintát süt a bohócnak.,1,1,3.77122
adult_trog,3307,10.0,gramm,"A boszorkány, aki a seprűn lovagol, ellopta a nyakláncot.",3,1,5.884345
adult_trog,3307,8.0,gramm,"A fiú, aki megpuszilja a lányt, az barna hajú.",4,1,4.01484
adult_trog,3307,14.0,gramm,"A lány azt a macskát kergeti, ami kövér.",2,1,6.466365
adult_trog,3307,3.0,gramm,A kecskét a kakas kergeti.,2,1,4.10795
adult_trog,3307,11.0,gramm,"A kislány, aki a busz elejénél áll, piros szoknyában van.",4,1,5.28499
adult_trog,3307,0.0,gramm,"A hal kék, de nem pöttyös.",1,1,2.792795
adult_trog,3307,12.0,pragm,A malac is felmászott a fára.,1,1,5.88698
adult_trog,3307,13.0,pragm,A fiú a békát is megfogta.,4,1,3.889295
adult_trog,3307,14.0,pragm,Piros lufit minden gyerek kapott.,2,0,6.06573
adult_trog,3307,0.0,pragm,A malac locsolja meg a fát.,4,1,9.06424
adult_trog,3307,8.0,pragm,Néhány alma kigurult a kosárból.,1,1,3.93397
adult_trog,3307,16.0,pragm,"De ügyes vagy, hogy eltörted a poharat.",1,1,4.224115
adult_trog,3307,17.0,pragm,"Látom, lustálkodtál egész nap, meg is telt a kosár.",2,1,12.20303
adult_trog,3307,5.0,pragm,Julcsi húga nagyon nyuszi volt a mikulásünnepségen.,1,1,4.306675
adult_trog,3307,7.0,pragm,A legtöbb malac kapott kukoricát,2,1,5.732405
adult_trog,3307,4.0,pragm,Pisti egy igazi éjszakai bagoly.,3,1,4.648795
adult_trog,3307,11.0,pragm,A virágot már kiszínezte a bohóc.,4,1,6.67389
adult_trog,3307,2.0,pragm,A szoba egy rettenetes disznóól.,4,1,4.30933
adult_trog,3307,9.0,pragm,A festő rajzolt egy házat.,2,1,3.395485
adult_trog,3307,3.0,pragm,A hegedűtanár egy sárkány.,2,1,12.66435
adult_trog,3307,15.0,pragm,Kalapja a libának is van.,1,1,9.046925
adult_trog,3307,10.0,pragm,A fiú már elkészült a homokvárral.,2,1,10.033415
adult_trog,3307,6.0,pragm,A kislánynak van legalább 3 kutyája.,4,1,5.73232
adult_trog,3307,1.0,pragm,A szarvas a tévét szereli meg.,1,1,5.429685
adult_trog,1313,8.0,gramm,"A fiú, aki megpuszilja a lányt, az barna hajú.",4,1,4.8418
adult_trog,1313,9.0,gramm,"A szív, ami a négyzetben van, az pöttyös.",3,1,3.890135
adult_trog,1313,4.0,gramm,A lány az ágyon ugrál és a macska a szőnyegen fekszik.,2,1,3.51696
adult_trog,1313,3.0,gramm,A kecskét a kakas kergeti.,2,1,4.11329
adult_trog,1313,0.0,gramm,"A hal kék, de nem pöttyös.",1,1,2.695455
adult_trog,1313,11.0,gramm,"A kislány, aki a busz elejénél áll, piros szoknyában van.",4,1,4.74408
adult_trog,1313,6.0,gramm,A sárga táska a zöld széken van,3,1,2.96456
adult_trog,1313,15.0,gramm,"A felhő, ami előtt a madár van, az lila.",4,1,4.607445
adult_trog,1313,2.0,gramm,A kisfiú palacsintát süt a bohócnak.,1,1,5.353715
adult_trog,1313,12.0,gramm,"A sárkány, aki a szekrény mögé bújt, csokit eszik.",3,0,5.878325
adult_trog,1313,14.0,gramm,"A lány azt a macskát kergeti, ami kövér.",2,1,3.992535
adult_trog,1313,1.0,gramm,"A zsiráfnak van egy hosszú, kockás, fekete-fehér nyakkendője.",4,1,4.82406
adult_trog,1313,5.0,gramm,"A pöttyös labda nagyobb, mint a csíkos kancsó",2,1,3.50526
adult_trog,1313,13.0,gramm,"A könyv azon a tányéron van, ami kék.",2,1,3.30739
adult_trog,1313,10.0,gramm,"A boszorkány, aki a seprűn lovagol, ellopta a nyakláncot.",3,1,4.87685
adult_trog,1313,16.0,gramm,"A róka, amit a malac kerget, az kicsi.",4,1,4.06066
adult_trog,1313,7.0,gramm,A zöld csésze a kockás vödör fölött van.,4,1,3.25704
adult_trog,1313,2.0,pragm,A szoba egy rettenetes disznóól.,4,1,14.26293
adult_trog,1313,5.0,pragm,Julcsi húga nagyon nyuszi volt a mikulásünnepségen.,1,1,5.50669
adult_trog,1313,14.0,pragm,Piros lufit minden gyerek kapott.,2,0,5.018325
adult_trog,1313,8.0,pragm,Néhány alma kigurult a kosárból.,1,1,4.56153
adult_trog,1313,12.0,pragm,A malac is felmászott a fára.,1,1,4.01666
adult_trog,1313,13.0,pragm,A fiú a békát is megfogta.,4,1,6.71568
adult_trog,1313,16.0,pragm,"De ügyes vagy, hogy eltörted a poharat.",1,1,4.447925
adult_trog,1313,10.0,pragm,A fiú már elkészült a homokvárral.,4,0,11.49288
adult_trog,1313,3.0,pragm,A hegedűtanár egy sárkány.,2,1,3.37564
adult_trog,1313,11.0,pragm,A virágot már kiszínezte a bohóc.,4,1,9.18812
adult_trog,1313,9.0,pragm,A festő rajzolt egy házat.,2,1,4.89599
adult_trog,1313,0.0,pragm,A malac locsolja meg a fát.,4,1,8.159155
adult_trog,1313,7.0,pragm,A legtöbb malac kapott kukoricát,2,1,3.06052
adult_trog,1313,4.0,pragm,Pisti egy igazi éjszakai bagoly.,3,1,3.31698
adult_trog,1313,1.0,pragm,A szarvas a tévét szereli meg.,1,1,4.132955
adult_trog,1313,15.0,pragm,Kalapja a libának is van.,3,0,3.6885
adult_trog,1313,17.0,pragm,"Látom, lustálkodtál egész nap, meg is telt a kosár.",2,1,6.946875
adult_trog,1313,6.0,pragm,A kislánynak van legalább 3 kutyája.,4,1,7.849875
adult_trog,2302,9.0,gramm,"A szív, ami a négyzetben van, az pöttyös.",3,1,3.711
adult_trog,2302,3.0,gramm,A kecskét a kakas kergeti.,2,1,3.226
adult_trog,2302,16.0,gramm,"A róka, amit a malac kerget, az kicsi.",4,1,4.117
adult_trog,2302,14.0,gramm,"A lány azt a macskát kergeti, ami kövér.",2,1,4.094
adult_trog,2302,6.0,gramm,A sárga táska a zöld széken van,3,1,3.159
adult_trog,2302,2.0,gramm,A kisfiú palacsintát süt a bohócnak.,1,1,3.813
adult_trog,2302,4.0,gramm,A lány az ágyon ugrál és a macska a szőnyegen fekszik.,2,1,3.706
adult_trog,2302,1.0,gramm,"A zsiráfnak van egy hosszú, kockás, fekete-fehér nyakkendője.",4,1,3.684
adult_trog,2302,8.0,gramm,"A fiú, aki megpuszilja a lányt, az barna hajú.",4,1,3.762
adult_trog,2302,10.0,gramm,"A boszorkány, aki a seprűn lovagol, ellopta a nyakláncot.",3,1,3.805
adult_trog,2302,11.0,gramm,"A kislány, aki a busz elejénél áll, piros szoknyában van.",4,1,4.589
adult_trog,2302,12.0,gramm,"A sárkány, aki a szekrény mögé bújt, csokit eszik.",4,1,5.384
adult_trog,2302,5.0,gramm,"A pöttyös labda nagyobb, mint a csíkos kancsó",2,1,3.267
adult_trog,2302,13.0,gramm,"A könyv azon a tányéron van, ami kék.",2,1,3.38
adult_trog,2302,15.0,gramm,"A felhő, ami előtt a madár van, az lila.",4,1,4.342
adult_trog,2302,7.0,gramm,A zöld csésze a kockás vödör fölött van.,4,1,4.453
adult_trog,2302,0.0,gramm,"A hal kék, de nem pöttyös.",1,1,2.827
adult_trog,2302,1.0,pragm,A szarvas a tévét szereli meg.,1,1,3.753
adult_trog,2302,4.0,pragm,Pisti egy igazi éjszakai bagoly.,3,1,3.017
adult_trog,2302,14.0,pragm,Piros lufit minden gyerek kapott.,2,0,9.01
adult_trog,2302,11.0,pragm,A virágot már kiszínezte a bohóc.,4,1,6.164
adult_trog,2302,3.0,pragm,A hegedűtanár egy sárkány.,2,1,4.28
adult_trog,2302,15.0,pragm,Kalapja a libának is van.,1,1,3.241
adult_trog,2302,10.0,pragm,A fiú már elkészült a homokvárral.,4,0,4.441
adult_trog,2302,17.0,pragm,"Látom, lustálkodtál egész nap, meg is telt a kosár.",2,1,9.381
adult_trog,2302,16.0,pragm,"De ügyes vagy, hogy eltörted a poharat.",1,1,4.564
adult_trog,2302,5.0,pragm,Julcsi húga nagyon nyuszi volt a mikulásünnepségen.,1,1,3.491
adult_trog,2302,6.0,pragm,A kislánynak van legalább 3 kutyája.,2,0,6.015
adult_trog,2302,13.0,pragm,A fiú a békát is megfogta.,4,1,3.703
adult_trog,2302,2.0,pragm,A szoba egy rettenetes disznóól.,4,1,3.173
adult_trog,2302,7.0,pragm,A legtöbb malac kapott kukoricát,2,1,5.941
adult_trog,2302,8.0,pragm,Néhány alma kigurult a kosárból.,1,1,3.271
adult_trog,2302,12.0,pragm,A malac is felmászott a fára.,1,1,3.31
adult_trog,2302,9.0,pragm,A festő rajzolt egy házat.,2,1,3.222
adult_trog,2302,0.0,pragm,A malac locsolja meg a fát.,4,1,6.168
adult_trog,3311,12.0,gramm,"A sárkány, aki a szekrény mögé bújt, csokit eszik.",3,0,6.407335
adult_trog,3311,8.0,gramm,"A fiú, aki megpuszilja a lányt, az barna hajú.",4,1,4.072715
adult_trog,3311,4.0,gramm,A lány az ágyon ugrál és a macska a szőnyegen fekszik.,2,1,4.68638
adult_trog,3311,11.0,gramm,"A kislány, aki a busz elejénél áll, piros szoknyában van.",4,1,3.56725
adult_trog,3311,14.0,gramm,"A lány azt a macskát kergeti, ami kövér.",2,1,3.67149
adult_trog,3311,6.0,gramm,A sárga táska a zöld széken van,3,1,4.193805
adult_trog,3311,3.0,gramm,A kecskét a kakas kergeti.,2,1,3.484855
adult_trog,3311,0.0,gramm,"A hal kék, de nem pöttyös.",1,1,2.80442
adult_trog,3311,1.0,gramm,"A zsiráfnak van egy hosszú, kockás, fekete-fehér nyakkendője.",4,1,3.510025
adult_trog,3311,15.0,gramm,"A felhő, ami előtt a madár van, az lila.",4,1,4.181505
adult_trog,3311,2.0,gramm,A kisfiú palacsintát süt a bohócnak.,1,1,3.29954
adult_trog,3311,5.0,gramm,"A pöttyös labda nagyobb, mint a csíkos kancsó",3,0,4.20631
adult_trog,3311,7.0,gramm,A zöld csésze a kockás vödör fölött van.,4,1,5.091645
adult_trog,3311,16.0,gramm,"A róka, amit a malac kerget, az kicsi.",4,1,3.629015
adult_trog,3311,13.0,gramm,"A könyv azon a tányéron van, ami kék.",2,1,5.207715
adult_trog,3311,9.0,gramm,"A szív, ami a négyzetben van, az pöttyös.",3,1,3.365145
adult_trog,3311,10.0,gramm,"A boszorkány, aki a seprűn lovagol, ellopta a nyakláncot.",1,0,4.090735
adult_trog,3311,9.0,pragm,A festő rajzolt egy házat.,4,0,8.633745
adult_trog,3311,4.0,pragm,Pisti egy igazi éjszakai bagoly.,3,1,4.737455
adult_trog,3311,5.0,pragm,Julcsi húga nagyon nyuszi volt a mikulásünnepségen.,1,1,4.38632
adult_trog,3311,14.0,pragm,Piros lufit minden gyerek kapott.,3,1,7.152625
adult_trog,3311,0.0,pragm,A malac locsolja meg a fát.,1,0,4.116705
adult_trog,3311,11.0,pragm,A virágot már kiszínezte a bohóc.,4,1,2.6661
adult_trog,3311,17.0,pragm,"Látom, lustálkodtál egész nap, meg is telt a kosár.",1,0,6.10154
adult_trog,3311,8.0,pragm,Néhány alma kigurult a kosárból.,1,1,4.85849
adult_trog,3311,10.0,pragm,A fiú már elkészült a homokvárral.,2,1,6.258865
adult_trog,3311,13.0,pragm,A fiú a békát is megfogta.,4,1,3.560775
adult_trog,3311,3.0,pragm,A hegedűtanár egy sárkány.,2,1,3.437925
adult_trog,3311,1.0,pragm,A szarvas a tévét szereli meg.,1,1,6.44489
adult_trog,3311,2.0,pragm,A szoba egy rettenetes disznóól.,4,1,4.616475
adult_trog,3311,6.0,pragm,A kislánynak van legalább 3 kutyája.,4,1,5.26256
adult_trog,3311,12.0,pragm,A malac is felmászott a fára.,1,1,6.474685
adult_trog,3311,15.0,pragm,Kalapja a libának is van.,1,1,3.759315
adult_trog,3311,16.0,pragm,"De ügyes vagy, hogy eltörted a poharat.",1,1,4.352705
adult_trog,3311,7.0,pragm,A legtöbb malac kapott kukoricát,2,1,3.99972
adult_trog,3312,4.0,gramm,A lány az ágyon ugrál és a macska a szőnyegen fekszik.,2,1,3.63133
adult_trog,3312,7.0,gramm,A zöld csésze a kockás vödör fölött van.,4,1,6.81823
adult_trog,3312,8.0,gramm,"A fiú, aki megpuszilja a lányt, az barna hajú.",4,1,4.608245
adult_trog,3312,6.0,gramm,A sárga táska a zöld széken van,2,0,2.625745
adult_trog,3312,15.0,gramm,"A felhő, ami előtt a madár van, az lila.",4,1,4.164705
adult_trog,3312,12.0,gramm,"A sárkány, aki a szekrény mögé bújt, csokit eszik.",3,0,4.69991
adult_trog,3312,3.0,gramm,A kecskét a kakas kergeti.,2,1,3.09207
adult_trog,3312,14.0,gramm,"A lány azt a macskát kergeti, ami kövér.",2,1,4.138605
adult_trog,3312,2.0,gramm,A kisfiú palacsintát süt a bohócnak.,1,1,4.03574
adult_trog,3312,0.0,gramm,"A hal kék, de nem pöttyös.",1,1,2.79696
adult_trog,3312,9.0,gramm,"A szív, ami a négyzetben van, az pöttyös.",3,1,3.50661
adult_trog,3312,5.0,gramm,"A pöttyös labda nagyobb, mint a csíkos kancsó",2,1,3.68613
adult_trog,3312,10.0,gramm,"A boszorkány, aki a seprűn lovagol, ellopta a nyakláncot.",3,1,5.38913
adult_trog,3312,1.0,gramm,"A zsiráfnak van egy hosszú, kockás, fekete-fehér nyakkendője.",4,1,3.32035
adult_trog,3312,13.0,gramm,"A könyv azon a tányéron van, ami kék.",2,1,3.41242
adult_trog,3312,16.0,gramm,"A róka, amit a malac kerget, az kicsi.",4,1,5.1224
adult_trog,3312,11.0,gramm,"A kislány, aki a busz elejénél áll, piros szoknyában van.",4,1,3.67599
adult_trog,3312,13.0,pragm,A fiú a békát is megfogta.,4,1,3.49365
adult_trog,3312,5.0,pragm,Julcsi húga nagyon nyuszi volt a mikulásünnepségen.,1,1,4.809695
adult_trog,3312,8.0,pragm,Néhány alma kigurult a kosárból.,4,0,2.593135
adult_trog,3312,7.0,pragm,A legtöbb malac kapott kukoricát,2,1,4.10178
adult_trog,3312,11.0,pragm,A virágot már kiszínezte a bohóc.,3,0,6.067315
adult_trog,3312,16.0,pragm,"De ügyes vagy, hogy eltörted a poharat.",1,1,5.40635
adult_trog,3312,9.0,pragm,A festő rajzolt egy házat.,2,1,2.536945
adult_trog,3312,10.0,pragm,A fiú már elkészült a homokvárral.,2,1,4.02057
adult_trog,3312,1.0,pragm,A szarvas a tévét szereli meg.,1,1,4.0828
adult_trog,3312,12.0,pragm,A malac is felmászott a fára.,1,1,2.148685
adult_trog,3312,3.0,pragm,A hegedűtanár egy sárkány.,4,0,3.50076
adult_trog,3312,4.0,pragm,Pisti egy igazi éjszakai bagoly.,3,1,4.76338
adult_trog,3312,17.0,pragm,"Látom, lustálkodtál egész nap, meg is telt a kosár.",1,0,6.859195
adult_trog,3312,6.0,pragm,A kislánynak van legalább 3 kutyája.,2,0,3.29635
adult_trog,3312,0.0,pragm,A malac locsolja meg a fát.,1,0,2.52016
adult_trog,3312,2.0,pragm,A szoba egy rettenetes disznóól.,4,1,4.394945
adult_trog,3312,14.0,pragm,Piros lufit minden gyerek kapott.,2,0,3.36523
adult_trog,3312,15.0,pragm,Kalapja a libának is van.,1,1,2.488145
adult_trog,3310,9.0,gramm,"A szív, ami a négyzetben van, az pöttyös.",3,1,4.0659
adult_trog,3310,14.0,gramm,"A lány azt a macskát kergeti, ami kövér.",2,1,5.2116
adult_trog,3310,4.0,gramm,A lány az ágyon ugrál és a macska a szőnyegen fekszik.,2,1,4.329235
adult_trog,3310,11.0,gramm,"A kislány, aki a busz elejénél áll, piros szoknyában van.",4,1,3.970145
adult_trog,3310,13.0,gramm,"A könyv azon a tányéron van, ami kék.",2,1,5.3066
adult_trog,3310,7.0,gramm,A zöld csésze a kockás vödör fölött van.,4,1,4.38588
adult_trog,3310,1.0,gramm,"A zsiráfnak van egy hosszú, kockás, fekete-fehér nyakkendője.",4,1,4.93395
adult_trog,3310,3.0,gramm,A kecskét a kakas kergeti.,2,1,4.094595
adult_trog,3310,10.0,gramm,"A boszorkány, aki a seprűn lovagol, ellopta a nyakláncot.",3,1,4.276505
adult_trog,3310,8.0,gramm,"A fiú, aki megpuszilja a lányt, az barna hajú.",4,1,3.96149
adult_trog,3310,5.0,gramm,"A pöttyös labda nagyobb, mint a csíkos kancsó",2,1,3.37825
adult_trog,3310,12.0,gramm,"A sárkány, aki a szekrény mögé bújt, csokit eszik.",4,1,18.498805
adult_trog,3310,16.0,gramm,"A róka, amit a malac kerget, az kicsi.",4,1,5.88549
adult_trog,3310,15.0,gramm,"A felhő, ami előtt a madár van, az lila.",4,1,7.149505
adult_trog,3310,0.0,gramm,"A hal kék, de nem pöttyös.",1,1,2.491595
adult_trog,3310,2.0,gramm,A kisfiú palacsintát süt a bohócnak.,1,1,3.02067
adult_trog,3310,6.0,gramm,A sárga táska a zöld széken van,3,1,6.438975
adult_trog,3310,11.0,pragm,A virágot már kiszínezte a bohóc.,3,0,14.848665
adult_trog,3310,0.0,pragm,A malac locsolja meg a fát.,4,1,16.668245
adult_trog,3310,5.0,pragm,Julcsi húga nagyon nyuszi volt a mikulásünnepségen.,1,1,5.68299
adult_trog,3310,1.0,pragm,A szarvas a tévét szereli meg.,1,1,6.196805
adult_trog,3310,2.0,pragm,A szoba egy rettenetes disznóól.,4,1,4.72408
adult_trog,3310,16.0,pragm,"De ügyes vagy, hogy eltörted a poharat.",1,1,5.43875
adult_trog,3310,15.0,pragm,Kalapja a libának is van.,1,1,11.100305
adult_trog,3310,14.0,pragm,Piros lufit minden gyerek kapott.,2,0,11.545835
adult_trog,3310,7.0,pragm,A legtöbb malac kapott kukoricát,2,1,6.637935
adult_trog,3310,6.0,pragm,A kislánynak van legalább 3 kutyája.,2,0,7.159575
adult_trog,3310,17.0,pragm,"Látom, lustálkodtál egész nap, meg is telt a kosár.",2,1,9.193785
adult_trog,3310,13.0,pragm,A fiú a békát is megfogta.,4,1,7.983185
adult_trog,3310,4.0,pragm,Pisti egy igazi éjszakai bagoly.,3,1,4.68632
adult_trog,3310,8.0,pragm,Néhány alma kigurult a kosárból.,1,1,5.551775
adult_trog,3310,12.0,pragm,A malac is felmászott a fára.,1,1,3.805915
adult_trog,3310,3.0,pragm,A hegedűtanár egy sárkány.,2,1,5.329865
adult_trog,3310,9.0,pragm,A festő rajzolt egy házat.,2,1,4.464655
adult_trog,3310,10.0,pragm,A fiú már elkészült a homokvárral.,2,1,15.98907
adult_trog,2309,6.0,gramm,A sárga táska a zöld széken van,3,1,4.55755
adult_trog,2309,5.0,gramm,"A pöttyös labda nagyobb, mint a csíkos kancsó",2,1,7.90736
adult_trog,2309,3.0,gramm,A kecskét a kakas kergeti.,2,1,4.629585
adult_trog,2309,15.0,gramm,"A felhő, ami előtt a madár van, az lila.",4,1,8.80572
adult_trog,2309,2.0,gramm,A kisfiú palacsintát süt a bohócnak.,1,1,6.29654
adult_trog,2309,12.0,gramm,"A sárkány, aki a szekrény mögé bújt, csokit eszik.",4,1,11.61328
adult_trog,2309,11.0,gramm,"A kislány, aki a busz elejénél áll, piros szoknyában van.",4,1,6.15625
adult_trog,2309,4.0,gramm,A lány az ágyon ugrál és a macska a szőnyegen fekszik.,2,1,4.896675
adult_trog,2309,16.0,gramm,"A róka, amit a malac kerget, az kicsi.",4,1,5.270355
adult_trog,2309,1.0,gramm,"A zsiráfnak van egy hosszú, kockás, fekete-fehér nyakkendője.",4,1,5.024915
adult_trog,2309,13.0,gramm,"A könyv azon a tányéron van, ami kék.",2,1,5.50534
adult_trog,2309,10.0,gramm,"A boszorkány, aki a seprűn lovagol, ellopta a nyakláncot.",3,1,8.333815
adult_trog,2309,7.0,gramm,A zöld csésze a kockás vödör fölött van.,4,1,4.88719
adult_trog,2309,14.0,gramm,"A lány azt a macskát kergeti, ami kövér.",2,1,6.37397
adult_trog,2309,9.0,gramm,"A szív, ami a négyzetben van, az pöttyös.",3,1,5.717065
adult_trog,2309,0.0,gramm,"A hal kék, de nem pöttyös.",1,1,3.323575
adult_trog,2309,8.0,gramm,"A fiú, aki megpuszilja a lányt, az barna hajú.",4,1,5.154075
adult_trog,2309,6.0,pragm,A kislánynak van legalább 3 kutyája.,4,1,16.390995
adult_trog,2309,17.0,pragm,"Látom, lustálkodtál egész nap, meg is telt a kosár.",4,0,12.905815
adult_trog,2309,13.0,pragm,A fiú a békát is megfogta.,4,1,5.22222
adult_trog,2309,8.0,pragm,Néhány alma kigurult a kosárból.,1,1,6.13401
adult_trog,2309,7.0,pragm,A legtöbb malac kapott kukoricát,2,1,9.299965
adult_trog,2309,1.0,pragm,A szarvas a tévét szereli meg.,1,1,10.654575
adult_trog,2309,15.0,pragm,Kalapja a libának is van.,1,1,13.547965
adult_trog,2309,4.0,pragm,Pisti egy igazi éjszakai bagoly.,3,1,6.91306
adult_trog,2309,16.0,pragm,"De ügyes vagy, hogy eltörted a poharat.",1,1,8.0198
adult_trog,2309,3.0,pragm,A hegedűtanár egy sárkány.,2,1,11.89342
adult_trog,2309,9.0,pragm,A festő rajzolt egy házat.,2,1,7.76364
adult_trog,2309,10.0,pragm,A fiú már elkészült a homokvárral.,4,0,5.9347
adult_trog,2309,0.0,pragm,A malac locsolja meg a fát.,4,1,13.35244
adult_trog,2309,11.0,pragm,A virágot már kiszínezte a bohóc.,4,1,8.36961
adult_trog,2309,14.0,pragm,Piros lufit minden gyerek kapott.,3,1,7.31312
adult_trog,2309,12.0,pragm,A malac is felmászott a fára.,1,1,5.652095
adult_trog,2309,5.0,pragm,Julcsi húga nagyon nyuszi volt a mikulásünnepségen.,1,1,5.76834
adult_trog,2309,2.0,pragm,A szoba egy rettenetes disznóól.,4,1,6.85979
adult_trog,3313,13.0,gramm,"A könyv azon a tányéron van, ami kék.",3,0,3.456
adult_trog,3313,3.0,gramm,A kecskét a kakas kergeti.,2,1,3.404
adult_trog,3313,11.0,gramm,"A kislány, aki a busz elejénél áll, piros szoknyában van.",4,1,4.698
adult_trog,3313,1.0,gramm,"A zsiráfnak van egy hosszú, kockás, fekete-fehér nyakkendője.",4,1,4.006
adult_trog,3313,14.0,gramm,"A lány azt a macskát kergeti, ami kövér.",2,1,3.984
adult_trog,3313,2.0,gramm,A kisfiú palacsintát süt a bohócnak.,1,1,3.732
adult_trog,3313,9.0,gramm,"A szív, ami a négyzetben van, az pöttyös.",3,1,4.831
adult_trog,3313,10.0,gramm,"A boszorkány, aki a seprűn lovagol, ellopta a nyakláncot.",3,1,4.467
adult_trog,3313,12.0,gramm,"A sárkány, aki a szekrény mögé bújt, csokit eszik.",4,1,4.678
adult_trog,3313,5.0,gramm,"A pöttyös labda nagyobb, mint a csíkos kancsó",2,1,3.184
adult_trog,3313,8.0,gramm,"A fiú, aki megpuszilja a lányt, az barna hajú.",4,1,3.833
adult_trog,3313,16.0,gramm,"A róka, amit a malac kerget, az kicsi.",4,1,3.851
adult_trog,3313,4.0,gramm,A lány az ágyon ugrál és a macska a szőnyegen fekszik.,2,1,4.561
adult_trog,3313,7.0,gramm,A zöld csésze a kockás vödör fölött van.,4,1,5.283
adult_trog,3313,6.0,gramm,A sárga táska a zöld széken van,3,1,3.9
adult_trog,3313,0.0,gramm,"A hal kék, de nem pöttyös.",1,1,2.758
adult_trog,3313,15.0,gramm,"A felhő, ami előtt a madár van, az lila.",4,1,4.205
adult_trog,3313,4.0,pragm,Pisti egy igazi éjszakai bagoly.,3,1,3.988
adult_trog,3313,6.0,pragm,A kislánynak van legalább 3 kutyája.,2,0,4.845
adult_trog,3313,16.0,pragm,"De ügyes vagy, hogy eltörted a poharat.",2,0,3.051
adult_trog,3313,9.0,pragm,A festő rajzolt egy házat.,2,1,5.21
adult_trog,3313,14.0,pragm,Piros lufit minden gyerek kapott.,3,1,4.23
adult_trog,3313,3.0,pragm,A hegedűtanár egy sárkány.,2,1,4.45
adult_trog,3313,8.0,pragm,Néhány alma kigurult a kosárból.,1,1,3.618
adult_trog,3313,2.0,pragm,A szoba egy rettenetes disznóól.,4,1,3.239
adult_trog,3313,1.0,pragm,A szarvas a tévét szereli meg.,1,1,5.907
adult_trog,3313,0.0,pragm,A malac locsolja meg a fát.,4,1,4.877
adult_trog,3313,17.0,pragm,"Látom, lustálkodtál egész nap, meg is telt a kosár.",2,1,9.34
adult_trog,3313,13.0,pragm,A fiú a békát is megfogta.,4,1,3.925
adult_trog,3313,12.0,pragm,A malac is felmászott a fára.,1,1,2.169
adult_trog,3313,7.0,pragm,A legtöbb malac kapott kukoricát,1,0,3.306
adult_trog,3313,11.0,pragm,A virágot már kiszínezte a bohóc.,4,1,8.781
adult_trog,3313,15.0,pragm,Kalapja a libának is van.,1,1,5.893
adult_trog,3313,10.0,pragm,A fiú már elkészült a homokvárral.,2,1,9.428
adult_trog,3313,5.0,pragm,Julcsi húga nagyon nyuszi volt a mikulásünnepségen.,1,1,5.279
adult_trog,2312,16.0,gramm,"A róka, amit a malac kerget, az kicsi.",4,1,5.261835
adult_trog,2312,9.0,gramm,"A szív, ami a négyzetben van, az pöttyös.",3,1,5.838365
adult_trog,2312,10.0,gramm,"A boszorkány, aki a seprűn lovagol, ellopta a nyakláncot.",3,1,4.90868
adult_trog,2312,1.0,gramm,"A zsiráfnak van egy hosszú, kockás, fekete-fehér nyakkendője.",4,1,4.744785
adult_trog,2312,5.0,gramm,"A pöttyös labda nagyobb, mint a csíkos kancsó",2,1,3.869475
adult_trog,2312,13.0,gramm,"A könyv azon a tányéron van, ami kék.",2,1,4.09178
adult_trog,2312,14.0,gramm,"A lány azt a macskát kergeti, ami kövér.",2,1,4.718745
adult_trog,2312,7.0,gramm,A zöld csésze a kockás vödör fölött van.,4,1,6.93171
adult_trog,2312,12.0,gramm,"A sárkány, aki a szekrény mögé bújt, csokit eszik.",4,1,6.20209
adult_trog,2312,11.0,gramm,"A kislány, aki a busz elejénél áll, piros szoknyában van.",4,1,3.953365
adult_trog,2312,4.0,gramm,A lány az ágyon ugrál és a macska a szőnyegen fekszik.,2,1,5.033455
adult_trog,2312,0.0,gramm,"A hal kék, de nem pöttyös.",1,1,2.26175
adult_trog,2312,3.0,gramm,A kecskét a kakas kergeti.,2,1,3.046805
adult_trog,2312,15.0,gramm,"A felhő, ami előtt a madár van, az lila.",1,0,4.11715
adult_trog,2312,6.0,gramm,A sárga táska a zöld széken van,3,1,3.97671
adult_trog,2312,2.0,gramm,A kisfiú palacsintát süt a bohócnak.,1,1,3.462095
adult_trog,2312,8.0,gramm,"A fiú, aki megpuszilja a lányt, az barna hajú.",4,1,4.251945
adult_trog,2312,16.0,pragm,"De ügyes vagy, hogy eltörted a poharat.",2,0,6.251125
adult_trog,2312,5.0,pragm,Julcsi húga nagyon nyuszi volt a mikulásünnepségen.,1,1,4.32986
adult_trog,2312,4.0,pragm,Pisti egy igazi éjszakai bagoly.,3,1,4.382615
adult_trog,2312,15.0,pragm,Kalapja a libának is van.,1,1,10.074335
adult_trog,2312,8.0,pragm,Néhány alma kigurult a kosárból.,1,1,7.373635
adult_trog,2312,9.0,pragm,A festő rajzolt egy házat.,2,1,4.769755
adult_trog,2312,17.0,pragm,"Látom, lustálkodtál egész nap, meg is telt a kosár.",1,0,7.550215
adult_trog,2312,14.0,pragm,Piros lufit minden gyerek kapott.,3,1,4.907845
adult_trog,2312,3.0,pragm,A hegedűtanár egy sárkány.,2,1,4.122275
adult_trog,2312,7.0,pragm,A legtöbb malac kapott kukoricát,2,1,6.06472
adult_trog,2312,6.0,pragm,A kislánynak van legalább 3 kutyája.,4,1,6.9464
adult_trog,2312,1.0,pragm,A szarvas a tévét szereli meg.,1,1,5.46029
adult_trog,2312,13.0,pragm,A fiú a békát is megfogta.,4,1,4.20645
adult_trog,2312,2.0,pragm,A szoba egy rettenetes disznóól.,4,1,3.86745
adult_trog,2312,0.0,pragm,A malac locsolja meg a fát.,4,1,5.073545
adult_trog,2312,12.0,pragm,A malac is felmászott a fára.,1,1,4.298115
adult_trog,2312,11.0,pragm,A virágot már kiszínezte a bohóc.,4,1,6.194755
adult_trog,2312,10.0,pragm,A fiú már elkészült a homokvárral.,1,0,5.91096
adult_trog,3306,6.0,gramm,A sárga táska a zöld széken van,3,1,3.896515
adult_trog,3306,8.0,gramm,"A fiú, aki megpuszilja a lányt, az barna hajú.",4,1,4.39444
adult_trog,3306,1.0,gramm,"A zsiráfnak van egy hosszú, kockás, fekete-fehér nyakkendője.",4,1,4.685365
adult_trog,3306,15.0,gramm,"A felhő, ami előtt a madár van, az lila.",4,1,4.98753
adult_trog,3306,2.0,gramm,A kisfiú palacsintát süt a bohócnak.,1,1,5.048405
adult_trog,3306,10.0,gramm,"A boszorkány, aki a seprűn lovagol, ellopta a nyakláncot.",3,1,4.80412
adult_trog,3306,11.0,gramm,"A kislány, aki a busz elejénél áll, piros szoknyában van.",4,1,4.42077
adult_trog,3306,3.0,gramm,A kecskét a kakas kergeti.,2,1,3.398195
adult_trog,3306,5.0,gramm,"A pöttyös labda nagyobb, mint a csíkos kancsó",2,1,3.63234
adult_trog,3306,4.0,gramm,A lány az ágyon ugrál és a macska a szőnyegen fekszik.,2,1,5.16311
adult_trog,3306,13.0,gramm,"A könyv azon a tányéron van, ami kék.",2,1,3.84825
adult_trog,3306,16.0,gramm,"A róka, amit a malac kerget, az kicsi.",4,1,4.71254
adult_trog,3306,9.0,gramm,"A szív, ami a négyzetben van, az pöttyös.",3,1,4.26532
adult_trog,3306,12.0,gramm,"A sárkány, aki a szekrény mögé bújt, csokit eszik.",4,1,7.44996
adult_trog,3306,14.0,gramm,"A lány azt a macskát kergeti, ami kövér.",2,1,5.608485
adult_trog,3306,7.0,gramm,A zöld csésze a kockás vödör fölött van.,4,1,5.56959
adult_trog,3306,0.0,gramm,"A hal kék, de nem pöttyös.",1,1,2.53416
adult_trog,3306,16.0,pragm,"De ügyes vagy, hogy eltörted a poharat.",2,0,3.91416
adult_trog,3306,17.0,pragm,"Látom, lustálkodtál egész nap, meg is telt a kosár.",2,1,11.694805
adult_trog,3306,13.0,pragm,A fiú a békát is megfogta.,4,1,3.966215
adult_trog,3306,11.0,pragm,A virágot már kiszínezte a bohóc.,4,1,9.75443
adult_trog,3306,12.0,pragm,A malac is felmászott a fára.,1,1,3.92673
adult_trog,3306,2.0,pragm,A szoba egy rettenetes disznóól.,4,1,6.14296
adult_trog,3306,0.0,pragm,A malac locsolja meg a fát.,4,1,6.443595
adult_trog,3306,5.0,pragm,Julcsi húga nagyon nyuszi volt a mikulásünnepségen.,1,1,7.53051
adult_trog,3306,3.0,pragm,A hegedűtanár egy sárkány.,4,0,5.1555
adult_trog,3306,7.0,pragm,A legtöbb malac kapott kukoricát,2,1,5.604825
adult_trog,3306,14.0,pragm,Piros lufit minden gyerek kapott.,3,1,7.736145
adult_trog,3306,6.0,pragm,A kislánynak van legalább 3 kutyája.,4,1,6.700165
adult_trog,3306,8.0,pragm,Néhány alma kigurult a kosárból.,1,1,4.77291
adult_trog,3306,1.0,pragm,A szarvas a tévét szereli meg.,1,1,5.36951
adult_trog,3306,9.0,pragm,A festő rajzolt egy házat.,2,1,4.22
adult_trog,3306,4.0,pragm,Pisti egy igazi éjszakai bagoly.,3,1,3.381535
adult_trog,3306,15.0,pragm,Kalapja a libának is van.,1,1,6.6802
adult_trog,3306,10.0,pragm,A fiú már elkészült a homokvárral.,2,1,11.528255
adult_trog,1315,2.0,gramm,A kisfiú palacsintát süt a bohócnak.,1,1,3.163465
adult_trog,1315,0.0,gramm,"A hal kék, de nem pöttyös.",1,1,2.399195
adult_trog,1315,6.0,gramm,A sárga táska a zöld széken van,3,1,3.61254
adult_trog,1315,9.0,gramm,"A szív, ami a négyzetben van, az pöttyös.",3,1,3.647725
adult_trog,1315,12.0,gramm,"A sárkány, aki a szekrény mögé bújt, csokit eszik.",4,1,11.61198
adult_trog,1315,8.0,gramm,"A fiú, aki megpuszilja a lányt, az barna hajú.",4,1,3.45674
adult_trog,1315,3.0,gramm,A kecskét a kakas kergeti.,2,1,2.811365
adult_trog,1315,16.0,gramm,"A róka, amit a malac kerget, az kicsi.",3,0,7.777145
adult_trog,1315,13.0,gramm,"A könyv azon a tányéron van, ami kék.",2,1,4.336325
adult_trog,1315,5.0,gramm,"A pöttyös labda nagyobb, mint a csíkos kancsó",2,1,3.25332
adult_trog,1315,7.0,gramm,A zöld csésze a kockás vödör fölött van.,4,1,3.93254
adult_trog,1315,15.0,gramm,"A felhő, ami előtt a madár van, az lila.",4,1,5.076665
adult_trog,1315,11.0,gramm,"A kislány, aki a busz elejénél áll, piros szoknyában van.",4,1,4.40969
adult_trog,1315,14.0,gramm,"A lány azt a macskát kergeti, ami kövér.",2,1,6.151695
adult_trog,1315,4.0,gramm,A lány az ágyon ugrál és a macska a szőnyegen fekszik.,2,1,3.83294
adult_trog,1315,10.0,gramm,"A boszorkány, aki a seprűn lovagol, ellopta a nyakláncot.",3,1,5.22601
adult_trog,1315,1.0,gramm,"A zsiráfnak van egy hosszú, kockás, fekete-fehér nyakkendője.",4,1,4.323535
adult_trog,1315,1.0,pragm,A szarvas a tévét szereli meg.,1,1,8.65804
adult_trog,1315,14.0,pragm,Piros lufit minden gyerek kapott.,3,1,11.368435
adult_trog,1315,6.0,pragm,A kislánynak van legalább 3 kutyája.,4,1,5.605815
adult_trog,1315,5.0,pragm,Julcsi húga nagyon nyuszi volt a mikulásünnepségen.,1,1,5.01337
adult_trog,1315,3.0,pragm,A hegedűtanár egy sárkány.,2,1,4.900195
adult_trog,1315,16.0,pragm,"De ügyes vagy, hogy eltörted a poharat.",1,1,6.87916
adult_trog,1315,15.0,pragm,Kalapja a libának is van.,2,0,7.264345
adult_trog,1315,11.0,pragm,A virágot már kiszínezte a bohóc.,4,1,5.52085
adult_trog,1315,12.0,pragm,A malac is felmászott a fára.,1,1,3.24345
adult_trog,1315,17.0,pragm,"Látom, lustálkodtál egész nap, meg is telt a kosár.",1,0,10.196295
adult_trog,1315,8.0,pragm,Néhány alma kigurult a kosárból.,1,1,3.838195
adult_trog,1315,9.0,pragm,A festő rajzolt egy házat.,2,1,3.82365
adult_trog,1315,2.0,pragm,A szoba egy rettenetes disznóól.,4,1,4.23436
adult_trog,1315,0.0,pragm,A malac locsolja meg a fát.,4,1,4.80012
adult_trog,1315,7.0,pragm,A legtöbb malac kapott kukoricát,3,0,4.77989
adult_trog,1315,4.0,pragm,Pisti egy igazi éjszakai bagoly.,3,1,3.36867
adult_trog,1315,10.0,pragm,A fiú már elkészült a homokvárral.,2,1,6.328805
adult_trog,1315,13.0,pragm,A fiú a békát is megfogta.,4,1,3.046905
adult_trog,2315,0.0,gramm,"A hal kék, de nem pöttyös.",1,1,2.77343
adult_trog,2315,2.0,gramm,A kisfiú palacsintát süt a bohócnak.,2,0,5.19628
adult_trog,2315,6.0,gramm,A sárga táska a zöld széken van,3,1,4.03949
adult_trog,2315,3.0,gramm,A kecskét a kakas kergeti.,2,1,3.412095
adult_trog,2315,9.0,gramm,"A szív, ami a négyzetben van, az pöttyös.",3,1,3.77541
adult_trog,2315,1.0,gramm,"A zsiráfnak van egy hosszú, kockás, fekete-fehér nyakkendője.",4,1,3.72437
adult_trog,2315,11.0,gramm,"A kislány, aki a busz elejénél áll, piros szoknyában van.",4,1,4.569615
adult_trog,2315,16.0,gramm,"A róka, amit a malac kerget, az kicsi.",4,1,5.685255
adult_trog,2315,5.0,gramm,"A pöttyös labda nagyobb, mint a csíkos kancsó",2,1,4.393475
adult_trog,2315,10.0,gramm,"A boszorkány, aki a seprűn lovagol, ellopta a nyakláncot.",3,1,5.37022
adult_trog,2315,13.0,gramm,"A könyv azon a tányéron van, ami kék.",2,1,4.13923
adult_trog,2315,4.0,gramm,A lány az ágyon ugrál és a macska a szőnyegen fekszik.,2,1,3.006405
adult_trog,2315,14.0,gramm,"A lány azt a macskát kergeti, ami kövér.",2,1,4.478775
adult_trog,2315,12.0,gramm,"A sárkány, aki a szekrény mögé bújt, csokit eszik.",4,1,6.13048
adult_trog,2315,15.0,gramm,"A felhő, ami előtt a madár van, az lila.",4,1,4.61838
adult_trog,2315,8.0,gramm,"A fiú, aki megpuszilja a lányt, az barna hajú.",4,1,3.488035
adult_trog,2315,7.0,gramm,A zöld csésze a kockás vödör fölött van.,4,1,3.452535
adult_trog,2315,9.0,pragm,A festő rajzolt egy házat.,2,1,6.238075
adult_trog,2315,7.0,pragm,A legtöbb malac kapott kukoricát,2,1,5.01544
adult_trog,2315,17.0,pragm,"Látom, lustálkodtál egész nap, meg is telt a kosár.",4,0,9.86104
adult_trog,2315,5.0,pragm,Julcsi húga nagyon nyuszi volt a mikulásünnepségen.,1,1,5.324705
adult_trog,2315,2.0,pragm,A szoba egy rettenetes disznóól.,4,1,4.119175
adult_trog,2315,12.0,pragm,A malac is felmászott a fára.,1,1,3.73093
adult_trog,2315,0.0,pragm,A malac locsolja meg a fát.,4,1,4.69495
adult_trog,2315,3.0,pragm,A hegedűtanár egy sárkány.,2,1,5.63785
adult_trog,2315,15.0,pragm,Kalapja a libának is van.,1,1,7.09542
adult_trog,2315,6.0,pragm,A kislánynak van legalább 3 kutyája.,4,1,6.29594
adult_trog,2315,1.0,pragm,A szarvas a tévét szereli meg.,1,1,4.846915
adult_trog,2315,16.0,pragm,"De ügyes vagy, hogy eltörted a poharat.",1,1,6.78068
adult_trog,2315,10.0,pragm,A fiú már elkészült a homokvárral.,2,1,17.42464
adult_trog,2315,8.0,pragm,Néhány alma kigurult a kosárból.,1,1,3.90376
adult_trog,2315,11.0,pragm,A virágot már kiszínezte a bohóc.,4,1,4.8816
adult_trog,2315,14.0,pragm,Piros lufit minden gyerek kapott.,3,1,8.5119
adult_trog,2315,4.0,pragm,Pisti egy igazi éjszakai bagoly.,3,1,3.56724
adult_trog,2315,13.0,pragm,A fiú a békát is megfogta.,4,1,3.480665
adult_trog,1317,14.0,gramm,"A lány azt a macskát kergeti, ami kövér.",2,1,7.30065
adult_trog,1317,16.0,gramm,"A róka, amit a malac kerget, az kicsi.",4,1,12.48469
adult_trog,1317,7.0,gramm,A zöld csésze a kockás vödör fölött van.,4,1,10.002865
adult_trog,1317,8.0,gramm,"A fiú, aki megpuszilja a lányt, az barna hajú.",4,1,8.031335
adult_trog,1317,0.0,gramm,"A hal kék, de nem pöttyös.",1,1,4.482075
adult_trog,1317,3.0,gramm,A kecskét a kakas kergeti.,2,1,3.71621
adult_trog,1317,13.0,gramm,"A könyv azon a tányéron van, ami kék.",2,1,4.87546
adult_trog,1317,15.0,gramm,"A felhő, ami előtt a madár van, az lila.",1,0,4.608655
adult_trog,1317,4.0,gramm,A lány az ágyon ugrál és a macska a szőnyegen fekszik.,2,1,6.16929
adult_trog,1317,9.0,gramm,"A szív, ami a négyzetben van, az pöttyös.",3,1,6.66654
adult_trog,1317,5.0,gramm,"A pöttyös labda nagyobb, mint a csíkos kancsó",2,1,4.168755
adult_trog,1317,10.0,gramm,"A boszorkány, aki a seprűn lovagol, ellopta a nyakláncot.",3,1,5.091255
adult_trog,1317,2.0,gramm,A kisfiú palacsintát süt a bohócnak.,1,1,5.26708
adult_trog,1317,1.0,gramm,"A zsiráfnak van egy hosszú, kockás, fekete-fehér nyakkendője.",4,1,4.533145
adult_trog,1317,11.0,gramm,"A kislány, aki a busz elejénél áll, piros szoknyában van.",4,1,5.03068
adult_trog,1317,6.0,gramm,A sárga táska a zöld széken van,3,1,3.714905
adult_trog,1317,12.0,gramm,"A sárkány, aki a szekrény mögé bújt, csokit eszik.",4,1,10.022535
adult_trog,1317,9.0,pragm,A festő rajzolt egy házat.,2,1,6.46056
adult_trog,1317,15.0,pragm,Kalapja a libának is van.,1,1,8.93837
adult_trog,1317,13.0,pragm,A fiú a békát is megfogta.,4,1,4.006945
adult_trog,1317,10.0,pragm,A fiú már elkészült a homokvárral.,4,0,9.951645
adult_trog,1317,17.0,pragm,"Látom, lustálkodtál egész nap, meg is telt a kosár.",4,0,10.764195
adult_trog,1317,14.0,pragm,Piros lufit minden gyerek kapott.,4,0,6.917465
adult_trog,1317,4.0,pragm,Pisti egy igazi éjszakai bagoly.,3,1,4.24748
adult_trog,1317,16.0,pragm,"De ügyes vagy, hogy eltörted a poharat.",1,1,6.528375
adult_trog,1317,3.0,pragm,A hegedűtanár egy sárkány.,2,1,5.522365
adult_trog,1317,11.0,pragm,A virágot már kiszínezte a bohóc.,4,1,4.392575
adult_trog,1317,7.0,pragm,A legtöbb malac kapott kukoricát,3,0,3.88813
adult_trog,1317,6.0,pragm,A kislánynak van legalább 3 kutyája.,4,1,6.064775
adult_trog,1317,0.0,pragm,A malac locsolja meg a fát.,4,1,5.469465
adult_trog,1317,1.0,pragm,A szarvas a tévét szereli meg.,2,0,6.97728
adult_trog,1317,5.0,pragm,Julcsi húga nagyon nyuszi volt a mikulásünnepségen.,1,1,7.177215
adult_trog,1317,8.0,pragm,Néhány alma kigurult a kosárból.,1,1,5.241315
adult_trog,1317,2.0,pragm,A szoba egy rettenetes disznóól.,4,1,3.535305
adult_trog,1317,12.0,pragm,A malac is felmászott a fára.,1,1,3.751265
adult_trog,1316,4.0,gramm,A lány az ágyon ugrál és a macska a szőnyegen fekszik.,2,1,5.016995
adult_trog,1316,11.0,gramm,"A kislány, aki a busz elejénél áll, piros szoknyában van.",4,1,5.293295
adult_trog,1316,9.0,gramm,"A szív, ami a négyzetben van, az pöttyös.",3,1,15.472025
adult_trog,1316,8.0,gramm,"A fiú, aki megpuszilja a lányt, az barna hajú.",4,1,5.772215
adult_trog,1316,6.0,gramm,A sárga táska a zöld széken van,3,1,4.50724
adult_trog,1316,2.0,gramm,A kisfiú palacsintát süt a bohócnak.,1,1,6.186755
adult_trog,1316,3.0,gramm,A kecskét a kakas kergeti.,2,1,5.988735
adult_trog,1316,15.0,gramm,"A felhő, ami előtt a madár van, az lila.",4,1,12.240275
adult_trog,1316,10.0,gramm,"A boszorkány, aki a seprűn lovagol, ellopta a nyakláncot.",3,1,5.095195
adult_trog,1316,1.0,gramm,"A zsiráfnak van egy hosszú, kockás, fekete-fehér nyakkendője.",4,1,4.41522
adult_trog,1316,7.0,gramm,A zöld csésze a kockás vödör fölött van.,4,1,3.944185
adult_trog,1316,0.0,gramm,"A hal kék, de nem pöttyös.",1,1,2.59436
adult_trog,1316,5.0,gramm,"A pöttyös labda nagyobb, mint a csíkos kancsó",2,1,3.75516
adult_trog,1316,14.0,gramm,"A lány azt a macskát kergeti, ami kövér.",2,1,4.971365
adult_trog,1316,13.0,gramm,"A könyv azon a tányéron van, ami kék.",2,1,3.845185
adult_trog,1316,16.0,gramm,"A róka, amit a malac kerget, az kicsi.",4,1,5.413545
adult_trog,1316,12.0,gramm,"A sárkány, aki a szekrény mögé bújt, csokit eszik.",3,0,17.014375
adult_trog,1316,4.0,pragm,Pisti egy igazi éjszakai bagoly.,3,1,6.292045
adult_trog,1316,8.0,pragm,Néhány alma kigurult a kosárból.,1,1,11.43821
adult_trog,1316,10.0,pragm,A fiú már elkészült a homokvárral.,4,0,4.95302
adult_trog,1316,13.0,pragm,A fiú a békát is megfogta.,1,0,4.89091
adult_trog,1316,16.0,pragm,"De ügyes vagy, hogy eltörted a poharat.",1,1,6.963855
adult_trog,1316,2.0,pragm,A szoba egy rettenetes disznóól.,4,1,5.688355
adult_trog,1316,1.0,pragm,A szarvas a tévét szereli meg.,1,1,10.789015
adult_trog,1316,12.0,pragm,A malac is felmászott a fára.,1,1,3.977955
adult_trog,1316,14.0,pragm,Piros lufit minden gyerek kapott.,2,0,10.188275
adult_trog,1316,0.0,pragm,A malac locsolja meg a fát.,1,0,6.572375
adult_trog,1316,3.0,pragm,A hegedűtanár egy sárkány.,2,1,4.887685
adult_trog,1316,5.0,pragm,Julcsi húga nagyon nyuszi volt a mikulásünnepségen.,1,1,2.84464
adult_trog,1316,7.0,pragm,A legtöbb malac kapott kukoricát,2,1,6.38229
adult_trog,1316,15.0,pragm,Kalapja a libának is van.,2,0,11.889905
adult_trog,1316,9.0,pragm,A festő rajzolt egy házat.,2,1,6.655015
adult_trog,1316,17.0,pragm,"Látom, lustálkodtál egész nap, meg is telt a kosár.",1,0,7.7249
adult_trog,1316,11.0,pragm,A virágot már kiszínezte a bohóc.,3,0,9.5866
adult_trog,1316,6.0,pragm,A kislánynak van legalább 3 kutyája.,2,0,7.48626
adult_trog,2318,14.0,gramm,"A lány azt a macskát kergeti, ami kövér.",2,1,6.45605
adult_trog,2318,13.0,gramm,"A könyv azon a tányéron van, ami kék.",2,1,6.30764
adult_trog,2318,1.0,gramm,"A zsiráfnak van egy hosszú, kockás, fekete-fehér nyakkendője.",4,1,6.45203
adult_trog,2318,8.0,gramm,"A fiú, aki megpuszilja a lányt, az barna hajú.",4,1,6.10457
adult_trog,2318,11.0,gramm,"A kislány, aki a busz elejénél áll, piros szoknyában van.",4,1,5.85843
adult_trog,2318,5.0,gramm,"A pöttyös labda nagyobb, mint a csíkos kancsó",2,1,5.096
adult_trog,2318,6.0,gramm,A sárga táska a zöld széken van,3,1,5.487985
adult_trog,2318,4.0,gramm,A lány az ágyon ugrál és a macska a szőnyegen fekszik.,2,1,4.49628
adult_trog,2318,15.0,gramm,"A felhő, ami előtt a madár van, az lila.",4,1,9.542745
adult_trog,2318,7.0,gramm,A zöld csésze a kockás vödör fölött van.,4,1,8.95929
adult_trog,2318,3.0,gramm,A kecskét a kakas kergeti.,2,1,4.569495
adult_trog,2318,0.0,gramm,"A hal kék, de nem pöttyös.",1,1,3.42766
adult_trog,2318,10.0,gramm,"A boszorkány, aki a seprűn lovagol, ellopta a nyakláncot.",3,1,5.039535
adult_trog,2318,9.0,gramm,"A szív, ami a négyzetben van, az pöttyös.",3,1,7.047635
adult_trog,2318,16.0,gramm,"A róka, amit a malac kerget, az kicsi.",4,1,7.440145
adult_trog,2318,2.0,gramm,A kisfiú palacsintát süt a bohócnak.,1,1,8.19367
adult_trog,2318,12.0,gramm,"A sárkány, aki a szekrény mögé bújt, csokit eszik.",4,1,9.34864
adult_trog,2318,16.0,pragm,"De ügyes vagy, hogy eltörted a poharat.",1,1,7.37367
adult_trog,2318,7.0,pragm,A legtöbb malac kapott kukoricát,2,1,11.589455
adult_trog,2318,8.0,pragm,Néhány alma kigurult a kosárból.,1,1,8.10434
adult_trog,2318,14.0,pragm,Piros lufit minden gyerek kapott.,3,1,23.26837
adult_trog,2318,17.0,pragm,"Látom, lustálkodtál egész nap, meg is telt a kosár.",1,0,14.76657
adult_trog,2318,11.0,pragm,A virágot már kiszínezte a bohóc.,4,1,7.257685
adult_trog,2318,10.0,pragm,A fiú már elkészült a homokvárral.,2,1,18.17745
adult_trog,2318,13.0,pragm,A fiú a békát is megfogta.,2,0,10.698445
adult_trog,2318,0.0,pragm,A malac locsolja meg a fát.,4,1,17.08585
adult_trog,2318,4.0,pragm,Pisti egy igazi éjszakai bagoly.,3,1,5.496935
adult_trog,2318,5.0,pragm,Julcsi húga nagyon nyuszi volt a mikulásünnepségen.,1,1,5.996685
adult_trog,2318,1.0,pragm,A szarvas a tévét szereli meg.,1,1,6.245125
adult_trog,2318,9.0,pragm,A festő rajzolt egy házat.,2,1,5.836415
adult_trog,2318,15.0,pragm,Kalapja a libának is van.,2,0,7.600845
adult_trog,2318,3.0,pragm,A hegedűtanár egy sárkány.,2,1,8.11961
adult_trog,2318,6.0,pragm,A kislánynak van legalább 3 kutyája.,4,1,19.119355
adult_trog,2318,12.0,pragm,A malac is felmászott a fára.,1,1,4.42306
adult_trog,2318,2.0,pragm,A szoba egy rettenetes disznóól.,4,1,5.15857
adult_trog,2314,9.0,gramm,"A szív, ami a négyzetben van, az pöttyös.",1,0,3.871
adult_trog,2314,14.0,gramm,"A lány azt a macskát kergeti, ami kövér.",3,0,3.794
adult_trog,2314,10.0,gramm,"A boszorkány, aki a seprűn lovagol, ellopta a nyakláncot.",3,1,5.344
adult_trog,2314,5.0,gramm,"A pöttyös labda nagyobb, mint a csíkos kancsó",2,1,4.489
adult_trog,2314,7.0,gramm,A zöld csésze a kockás vödör fölött van.,4,1,4.683
adult_trog,2314,0.0,gramm,"A hal kék, de nem pöttyös.",1,1,2.719
adult_trog,2314,6.0,gramm,A sárga táska a zöld széken van,3,1,3.075
adult_trog,2314,3.0,gramm,A kecskét a kakas kergeti.,2,1,2.944
adult_trog,2314,4.0,gramm,A lány az ágyon ugrál és a macska a szőnyegen fekszik.,2,1,3.731
adult_trog,2314,2.0,gramm,A kisfiú palacsintát süt a bohócnak.,1,1,3.206
adult_trog,2314,11.0,gramm,"A kislány, aki a busz elejénél áll, piros szoknyában van.",4,1,4.647
adult_trog,2314,15.0,gramm,"A felhő, ami előtt a madár van, az lila.",3,0,4.561
adult_trog,2314,8.0,gramm,"A fiú, aki megpuszilja a lányt, az barna hajú.",4,1,3.674
adult_trog,2314,13.0,gramm,"A könyv azon a tányéron van, ami kék.",2,1,5.411
adult_trog,2314,12.0,gramm,"A sárkány, aki a szekrény mögé bújt, csokit eszik.",4,1,6.356
adult_trog,2314,1.0,gramm,"A zsiráfnak van egy hosszú, kockás, fekete-fehér nyakkendője.",4,1,4.969
adult_trog,2314,16.0,gramm,"A róka, amit a malac kerget, az kicsi.",4,1,5.841
adult_trog,2314,7.0,pragm,A legtöbb malac kapott kukoricát,1,0,7.421
adult_trog,2314,13.0,pragm,A fiú a békát is megfogta.,4,1,5.131
adult_trog,2314,0.0,pragm,A malac locsolja meg a fát.,4,1,7.608
adult_trog,2314,1.0,pragm,A szarvas a tévét szereli meg.,1,1,6.402
adult_trog,2314,3.0,pragm,A hegedűtanár egy sárkány.,4,0,4.672
adult_trog,2314,4.0,pragm,Pisti egy igazi éjszakai bagoly.,3,1,3.567
adult_trog,2314,11.0,pragm,A virágot már kiszínezte a bohóc.,4,1,7.651
adult_trog,2314,14.0,pragm,Piros lufit minden gyerek kapott.,3,1,10.716
adult_trog,2314,10.0,pragm,A fiú már elkészült a homokvárral.,2,1,5.865
adult_trog,2314,9.0,pragm,A festő rajzolt egy házat.,2,1,3.912
adult_trog,2314,12.0,pragm,A malac is felmászott a fára.,2,0,13.922
adult_trog,2314,8.0,pragm,Néhány alma kigurult a kosárból.,2,0,4.847
adult_trog,2314,2.0,pragm,A szoba egy rettenetes disznóól.,4,1,4.35
adult_trog,2314,15.0,pragm,Kalapja a libának is van.,3,0,0.556
adult_trog,2314,6.0,pragm,A kislánynak van legalább 3 kutyája.,2,0,0.552
adult_trog,2314,16.0,pragm,"De ügyes vagy, hogy eltörted a poharat.",1,1,0.37
adult_trog,2314,17.0,pragm,"Látom, lustálkodtál egész nap, meg is telt a kosár.",2,1,7.775
adult_trog,2314,5.0,pragm,Julcsi húga nagyon nyuszi volt a mikulásünnepségen.,1,1,3.902
adult_trog,2303,1.0,gramm,"A zsiráfnak van egy hosszú, kockás, fekete-fehér nyakkendője.",4,1,4.897065
adult_trog,2303,6.0,gramm,A sárga táska a zöld széken van,3,1,3.22187
adult_trog,2303,9.0,gramm,"A szív, ami a négyzetben van, az pöttyös.",3,1,6.044435
adult_trog,2303,12.0,gramm,"A sárkány, aki a szekrény mögé bújt, csokit eszik.",4,1,7.66543
adult_trog,2303,4.0,gramm,A lány az ágyon ugrál és a macska a szőnyegen fekszik.,2,1,4.60555
adult_trog,2303,3.0,gramm,A kecskét a kakas kergeti.,2,1,4.26958
adult_trog,2303,14.0,gramm,"A lány azt a macskát kergeti, ami kövér.",2,1,6.327095
adult_trog,2303,5.0,gramm,"A pöttyös labda nagyobb, mint a csíkos kancsó",2,1,14.12657
adult_trog,2303,16.0,gramm,"A róka, amit a malac kerget, az kicsi.",4,1,4.59807
adult_trog,2303,8.0,gramm,"A fiú, aki megpuszilja a lányt, az barna hajú.",4,1,4.033505
adult_trog,2303,11.0,gramm,"A kislány, aki a busz elejénél áll, piros szoknyában van.",4,1,4.84794
adult_trog,2303,13.0,gramm,"A könyv azon a tányéron van, ami kék.",2,1,3.080155
adult_trog,2303,10.0,gramm,"A boszorkány, aki a seprűn lovagol, ellopta a nyakláncot.",1,0,4.281115
adult_trog,2303,15.0,gramm,"A felhő, ami előtt a madár van, az lila.",4,1,4.3341
adult_trog,2303,2.0,gramm,A kisfiú palacsintát süt a bohócnak.,1,1,2.866395
adult_trog,2303,0.0,gramm,"A hal kék, de nem pöttyös.",1,1,2.24747
adult_trog,2303,7.0,gramm,A zöld csésze a kockás vödör fölött van.,4,1,7.54197
adult_trog,2303,11.0,pragm,A virágot már kiszínezte a bohóc.,4,1,7.852145
adult_trog,2303,6.0,pragm,A kislánynak van legalább 3 kutyája.,4,1,0.951315
adult_trog,2303,7.0,pragm,A legtöbb malac kapott kukoricát,2,1,0.59274
adult_trog,2303,8.0,pragm,Néhány alma kigurult a kosárból.,2,0,0.34341
adult_trog,2303,15.0,pragm,Kalapja a libának is van.,2,0,0.33535
adult_trog,2303,17.0,pragm,"Látom, lustálkodtál egész nap, meg is telt a kosár.",1,0,0.220575
adult_trog,2303,14.0,pragm,Piros lufit minden gyerek kapott.,3,1,0.24394
adult_trog,2303,5.0,pragm,Julcsi húga nagyon nyuszi volt a mikulásünnepségen.,2,0,0.05681
adult_trog,2303,16.0,pragm,"De ügyes vagy, hogy eltörted a poharat.",4,0,0.1863
adult_trog,2303,3.0,pragm,A hegedűtanár egy sárkány.,4,0,0.121525
adult_trog,2303,0.0,pragm,A malac locsolja meg a fát.,3,0,0.08079
adult_trog,2303,12.0,pragm,A malac is felmászott a fára.,3,0,0.162855
adult_trog,2303,13.0,pragm,A fiú a békát is megfogta.,2,0,0.049625
adult_trog,2303,10.0,pragm,A fiú már elkészült a homokvárral.,1,0,0.001385
adult_trog,2303,1.0,pragm,A szarvas a tévét szereli meg.,1,1,0.08635
adult_trog,2303,9.0,pragm,A festő rajzolt egy házat.,1,0,0.078015
adult_trog,2303,2.0,pragm,A szoba egy rettenetes disznóól.,3,0,0.014785
adult_trog,2303,4.0,pragm,Pisti egy igazi éjszakai bagoly.,2,0,0.063955
adult_trog,1323,4.0,gramm,A lány az ágyon ugrál és a macska a szőnyegen fekszik.,2,1,3.6365
adult_trog,1323,1.0,gramm,"A zsiráfnak van egy hosszú, kockás, fekete-fehér nyakkendője.",4,1,3.745
adult_trog,1323,13.0,gramm,"A könyv azon a tányéron van, ami kék.",2,1,4.0917
adult_trog,1323,9.0,gramm,"A szív, ami a négyzetben van, az pöttyös.",3,1,3.6376
adult_trog,1323,15.0,gramm,"A felhő, ami előtt a madár van, az lila.",4,1,5.1908
adult_trog,1323,16.0,gramm,"A róka, amit a malac kerget, az kicsi.",4,1,4.8066
adult_trog,1323,2.0,gramm,A kisfiú palacsintát süt a bohócnak.,1,1,3.4473
adult_trog,1323,12.0,gramm,"A sárkány, aki a szekrény mögé bújt, csokit eszik.",4,1,5.5657
adult_trog,1323,6.0,gramm,A sárga táska a zöld széken van,3,1,2.7221
adult_trog,1323,8.0,gramm,"A fiú, aki megpuszilja a lányt, az barna hajú.",4,1,3.6152
adult_trog,1323,14.0,gramm,"A lány azt a macskát kergeti, ami kövér.",3,0,3.8632
adult_trog,1323,10.0,gramm,"A boszorkány, aki a seprűn lovagol, ellopta a nyakláncot.",3,1,4.8991
adult_trog,1323,3.0,gramm,A kecskét a kakas kergeti.,2,1,4.2677
adult_trog,1323,0.0,gramm,"A hal kék, de nem pöttyös.",1,1,2.6627
adult_trog,1323,5.0,gramm,"A pöttyös labda nagyobb, mint a csíkos kancsó",2,1,3.28
adult_trog,1323,7.0,gramm,A zöld csésze a kockás vödör fölött van.,4,1,4.0074
adult_trog,1323,11.0,gramm,"A kislány, aki a busz elejénél áll, piros szoknyában van.",4,1,4.5753
adult_trog,1323,3.0,pragm,A hegedűtanár egy sárkány.,4,0,5.1109
adult_trog,1323,1.0,pragm,A szarvas a tévét szereli meg.,1,1,5.0999
adult_trog,1323,6.0,pragm,A kislánynak van legalább 3 kutyája.,4,1,5.0587
adult_trog,1323,8.0,pragm,Néhány alma kigurult a kosárból.,1,1,3.2849
adult_trog,1323,0.0,pragm,A malac locsolja meg a fát.,4,1,4.9316
adult_trog,1323,14.0,pragm,Piros lufit minden gyerek kapott.,3,1,5.8251
adult_trog,1323,12.0,pragm,A malac is felmászott a fára.,1,1,3.8863
adult_trog,1323,9.0,pragm,A festő rajzolt egy házat.,2,1,3.7277
adult_trog,1323,16.0,pragm,"De ügyes vagy, hogy eltörted a poharat.",1,1,6.5203
adult_trog,1323,15.0,pragm,Kalapja a libának is van.,1,1,6.3729
adult_trog,1323,10.0,pragm,A fiú már elkészült a homokvárral.,2,1,7.9834
adult_trog,1323,13.0,pragm,A fiú a békát is megfogta.,4,1,8.3454
adult_trog,1323,4.0,pragm,Pisti egy igazi éjszakai bagoly.,3,1,4.9152
adult_trog,1323,7.0,pragm,A legtöbb malac kapott kukoricát,4,0,2.9267
adult_trog,1323,11.0,pragm,A virágot már kiszínezte a bohóc.,4,1,6.5761
adult_trog,1323,5.0,pragm,Julcsi húga nagyon nyuszi volt a mikulásünnepségen.,1,1,4.2472
adult_trog,1323,17.0,pragm,"Látom, lustálkodtál egész nap, meg is telt a kosár.",2,1,10.1622
adult_trog,1323,2.0,pragm,A szoba egy rettenetes disznóól.,4,1,4.0951
adult_trog,3303,2.0,gramm,A kisfiú palacsintát süt a bohócnak.,1,1,3.170785
adult_trog,3303,15.0,gramm,"A felhő, ami előtt a madár van, az lila.",4,1,4.61176
adult_trog,3303,8.0,gramm,"A fiú, aki megpuszilja a lányt, az barna hajú.",4,1,3.88129
adult_trog,3303,5.0,gramm,"A pöttyös labda nagyobb, mint a csíkos kancsó",2,1,4.441405
adult_trog,3303,3.0,gramm,A kecskét a kakas kergeti.,2,1,2.871045
adult_trog,3303,6.0,gramm,A sárga táska a zöld széken van,4,0,3.25464
adult_trog,3303,4.0,gramm,A lány az ágyon ugrál és a macska a szőnyegen fekszik.,2,1,3.48432
adult_trog,3303,12.0,gramm,"A sárkány, aki a szekrény mögé bújt, csokit eszik.",4,1,5.7167
adult_trog,3303,16.0,gramm,"A róka, amit a malac kerget, az kicsi.",4,1,4.288605
adult_trog,3303,11.0,gramm,"A kislány, aki a busz elejénél áll, piros szoknyában van.",4,1,4.65247
adult_trog,3303,1.0,gramm,"A zsiráfnak van egy hosszú, kockás, fekete-fehér nyakkendője.",4,1,3.67677
adult_trog,3303,10.0,gramm,"A boszorkány, aki a seprűn lovagol, ellopta a nyakláncot.",3,1,6.42316
adult_trog,3303,13.0,gramm,"A könyv azon a tányéron van, ami kék.",2,1,3.162305
adult_trog,3303,9.0,gramm,"A szív, ami a négyzetben van, az pöttyös.",3,1,4.34589
adult_trog,3303,0.0,gramm,"A hal kék, de nem pöttyös.",1,1,2.870965
adult_trog,3303,14.0,gramm,"A lány azt a macskát kergeti, ami kövér.",2,1,3.83617
adult_trog,3303,7.0,gramm,A zöld csésze a kockás vödör fölött van.,4,1,3.27097
adult_trog,3303,16.0,pragm,"De ügyes vagy, hogy eltörted a poharat.",1,1,3.279065
adult_trog,3303,2.0,pragm,A szoba egy rettenetes disznóól.,4,1,4.5644
adult_trog,3303,10.0,pragm,A fiú már elkészült a homokvárral.,2,1,3.307615
adult_trog,3303,9.0,pragm,A festő rajzolt egy házat.,2,1,5.94712
adult_trog,3303,12.0,pragm,A malac is felmászott a fára.,1,1,3.847225
adult_trog,3303,7.0,pragm,A legtöbb malac kapott kukoricát,1,0,5.600565
adult_trog,3303,8.0,pragm,Néhány alma kigurult a kosárból.,1,1,4.52392
adult_trog,3303,13.0,pragm,A fiú a békát is megfogta.,4,1,3.68662
adult_trog,3303,3.0,pragm,A hegedűtanár egy sárkány.,4,0,3.36374
adult_trog,3303,0.0,pragm,A malac locsolja meg a fát.,4,1,3.898635
adult_trog,3303,14.0,pragm,Piros lufit minden gyerek kapott.,2,0,4.947275
adult_trog,3303,5.0,pragm,Julcsi húga nagyon nyuszi volt a mikulásünnepségen.,1,1,4.859225
adult_trog,3303,11.0,pragm,A virágot már kiszínezte a bohóc.,4,1,3.25901
adult_trog,3303,17.0,pragm,"Látom, lustálkodtál egész nap, meg is telt a kosár.",2,1,6.05799
adult_trog,3303,4.0,pragm,Pisti egy igazi éjszakai bagoly.,4,0,3.083595
adult_trog,3303,15.0,pragm,Kalapja a libának is van.,1,1,3.308405
adult_trog,3303,6.0,pragm,A kislánynak van legalább 3 kutyája.,2,0,2.923545
adult_trog,3303,1.0,pragm,A szarvas a tévét szereli meg.,2,0,3.153845
adult_trog,1320,6.0,gramm,A sárga táska a zöld széken van,3,1,3.703525
adult_trog,1320,16.0,gramm,"A róka, amit a malac kerget, az kicsi.",4,1,4.05355
adult_trog,1320,2.0,gramm,A kisfiú palacsintát süt a bohócnak.,1,1,4.633045
adult_trog,1320,15.0,gramm,"A felhő, ami előtt a madár van, az lila.",4,1,4.56513
adult_trog,1320,0.0,gramm,"A hal kék, de nem pöttyös.",1,1,2.46002
adult_trog,1320,5.0,gramm,"A pöttyös labda nagyobb, mint a csíkos kancsó",2,1,3.37065
adult_trog,1320,4.0,gramm,A lány az ágyon ugrál és a macska a szőnyegen fekszik.,2,1,3.51271
adult_trog,1320,10.0,gramm,"A boszorkány, aki a seprűn lovagol, ellopta a nyakláncot.",3,1,4.39019
adult_trog,1320,12.0,gramm,"A sárkány, aki a szekrény mögé bújt, csokit eszik.",4,1,6.326975
adult_trog,1320,9.0,gramm,"A szív, ami a négyzetben van, az pöttyös.",3,1,5.118925
adult_trog,1320,8.0,gramm,"A fiú, aki megpuszilja a lányt, az barna hajú.",4,1,3.120635
adult_trog,1320,3.0,gramm,A kecskét a kakas kergeti.,2,1,3.053575
adult_trog,1320,13.0,gramm,"A könyv azon a tányéron van, ami kék.",2,1,3.214835
adult_trog,1320,7.0,gramm,A zöld csésze a kockás vödör fölött van.,4,1,4.55984
adult_trog,1320,1.0,gramm,"A zsiráfnak van egy hosszú, kockás, fekete-fehér nyakkendője.",4,1,3.670705
adult_trog,1320,14.0,gramm,"A lány azt a macskát kergeti, ami kövér.",2,1,4.04317
adult_trog,1320,11.0,gramm,"A kislány, aki a busz elejénél áll, piros szoknyában van.",4,1,3.977785
adult_trog,1320,0.0,pragm,A malac locsolja meg a fát.,1,0,6.87339
adult_trog,1320,8.0,pragm,Néhány alma kigurult a kosárból.,1,1,3.812785
adult_trog,1320,1.0,pragm,A szarvas a tévét szereli meg.,1,1,4.101465
adult_trog,1320,11.0,pragm,A virágot már kiszínezte a bohóc.,4,1,6.548395
adult_trog,1320,15.0,pragm,Kalapja a libának is van.,2,0,4.367915
adult_trog,1320,10.0,pragm,A fiú már elkészült a homokvárral.,2,1,7.85658
adult_trog,1320,9.0,pragm,A festő rajzolt egy házat.,1,0,8.928365
adult_trog,1320,3.0,pragm,A hegedűtanár egy sárkány.,4,0,4.191785
adult_trog,1320,6.0,pragm,A kislánynak van legalább 3 kutyája.,4,1,4.79048
adult_trog,1320,13.0,pragm,A fiú a békát is megfogta.,1,0,11.920305
adult_trog,1320,4.0,pragm,Pisti egy igazi éjszakai bagoly.,3,1,4.871895
adult_trog,1320,14.0,pragm,Piros lufit minden gyerek kapott.,3,1,7.972045
adult_trog,1320,17.0,pragm,"Látom, lustálkodtál egész nap, meg is telt a kosár.",1,0,7.063795
adult_trog,1320,12.0,pragm,A malac is felmászott a fára.,1,1,7.180535
adult_trog,1320,16.0,pragm,"De ügyes vagy, hogy eltörted a poharat.",1,1,4.823925
adult_trog,1320,2.0,pragm,A szoba egy rettenetes disznóól.,4,1,3.700675
adult_trog,1320,7.0,pragm,A legtöbb malac kapott kukoricát,2,1,3.170325
adult_trog,1320,5.0,pragm,Julcsi húga nagyon nyuszi volt a mikulásünnepségen.,1,1,3.58832
adult_trog,3321,1.0,gramm,"A zsiráfnak van egy hosszú, kockás, fekete-fehér nyakkendője.",4,1,4.23941
adult_trog,3321,7.0,gramm,A zöld csésze a kockás vödör fölött van.,4,1,4.50411
adult_trog,3321,9.0,gramm,"A szív, ami a négyzetben van, az pöttyös.",3,1,3.965635
adult_trog,3321,5.0,gramm,"A pöttyös labda nagyobb, mint a csíkos kancsó",2,1,4.225195
adult_trog,3321,6.0,gramm,A sárga táska a zöld széken van,4,0,2.984635
adult_trog,3321,8.0,gramm,"A fiú, aki megpuszilja a lányt, az barna hajú.",3,0,0.2129
adult_trog,3321,11.0,gramm,"A kislány, aki a busz elejénél áll, piros szoknyában van.",3,0,2.33038
adult_trog,3321,15.0,gramm,"A felhő, ami előtt a madár van, az lila.",4,1,4.292735
adult_trog,3321,10.0,gramm,"A boszorkány, aki a seprűn lovagol, ellopta a nyakláncot.",3,1,6.219325
adult_trog,3321,3.0,gramm,A kecskét a kakas kergeti.,2,1,4.061425
adult_trog,3321,14.0,gramm,"A lány azt a macskát kergeti, ami kövér.",2,1,5.31773
adult_trog,3321,13.0,gramm,"A könyv azon a tányéron van, ami kék.",2,1,3.607005
adult_trog,3321,4.0,gramm,A lány az ágyon ugrál és a macska a szőnyegen fekszik.,2,1,3.377715
adult_trog,3321,2.0,gramm,A kisfiú palacsintát süt a bohócnak.,1,1,4.649
adult_trog,3321,16.0,gramm,"A róka, amit a malac kerget, az kicsi.",4,1,4.04494
adult_trog,3321,0.0,gramm,"A hal kék, de nem pöttyös.",1,1,2.312015
adult_trog,3321,12.0,gramm,"A sárkány, aki a szekrény mögé bújt, csokit eszik.",3,0,5.20107
adult_trog,3321,3.0,pragm,A hegedűtanár egy sárkány.,4,0,2.967275
adult_trog,3321,4.0,pragm,Pisti egy igazi éjszakai bagoly.,3,1,4.94156
adult_trog,3321,12.0,pragm,A malac is felmászott a fára.,1,1,4.949545
adult_trog,3321,10.0,pragm,A fiú már elkészült a homokvárral.,4,0,4.84853
adult_trog,3321,14.0,pragm,Piros lufit minden gyerek kapott.,2,0,4.247655
adult_trog,3321,1.0,pragm,A szarvas a tévét szereli meg.,1,1,6.68364
adult_trog,3321,8.0,pragm,Néhány alma kigurult a kosárból.,1,1,3.344115
adult_trog,3321,15.0,pragm,Kalapja a libának is van.,1,1,7.10584
adult_trog,3321,11.0,pragm,A virágot már kiszínezte a bohóc.,4,1,8.173935
adult_trog,3321,17.0,pragm,"Látom, lustálkodtál egész nap, meg is telt a kosár.",1,0,6.523675
adult_trog,3321,16.0,pragm,"De ügyes vagy, hogy eltörted a poharat.",1,1,5.78163
adult_trog,3321,7.0,pragm,A legtöbb malac kapott kukoricát,2,1,6.313325
adult_trog,3321,0.0,pragm,A malac locsolja meg a fát.,4,1,4.61889
adult_trog,3321,13.0,pragm,A fiú a békát is megfogta.,4,1,3.597975
adult_trog,3321,2.0,pragm,A szoba egy rettenetes disznóól.,4,1,4.941565
adult_trog,3321,5.0,pragm,Julcsi húga nagyon nyuszi volt a mikulásünnepségen.,1,1,3.543565
adult_trog,3321,9.0,pragm,A festő rajzolt egy házat.,2,1,3.005735
adult_trog,3321,6.0,pragm,A kislánynak van legalább 3 kutyája.,4,1,3.873425
adult_trog,3301,6.0,gramm,A sárga táska a zöld széken van,3,1,3.07522
adult_trog,3301,0.0,gramm,"A hal kék, de nem pöttyös.",1,1,2.94314
adult_trog,3301,9.0,gramm,"A szív, ami a négyzetben van, az pöttyös.",3,1,3.172365
adult_trog,3301,16.0,gramm,"A róka, amit a malac kerget, az kicsi.",4,1,5.00003
adult_trog,3301,3.0,gramm,A kecskét a kakas kergeti.,2,1,4.79833
adult_trog,3301,2.0,gramm,A kisfiú palacsintát süt a bohócnak.,1,1,3.10388
adult_trog,3301,5.0,gramm,"A pöttyös labda nagyobb, mint a csíkos kancsó",2,1,3.712215
adult_trog,3301,12.0,gramm,"A sárkány, aki a szekrény mögé bújt, csokit eszik.",4,1,8.18589
adult_trog,3301,8.0,gramm,"A fiú, aki megpuszilja a lányt, az barna hajú.",4,1,4.96476
adult_trog,3301,14.0,gramm,"A lány azt a macskát kergeti, ami kövér.",2,1,3.776435
adult_trog,3301,15.0,gramm,"A felhő, ami előtt a madár van, az lila.",4,1,6.415335
adult_trog,3301,10.0,gramm,"A boszorkány, aki a seprűn lovagol, ellopta a nyakláncot.",1,0,4.53681
adult_trog,3301,11.0,gramm,"A kislány, aki a busz elejénél áll, piros szoknyában van.",4,1,4.616385
adult_trog,3301,1.0,gramm,"A zsiráfnak van egy hosszú, kockás, fekete-fehér nyakkendője.",4,1,4.276045
adult_trog,3301,4.0,gramm,A lány az ágyon ugrál és a macska a szőnyegen fekszik.,2,1,4.16889
adult_trog,3301,13.0,gramm,"A könyv azon a tányéron van, ami kék.",2,1,3.98502
adult_trog,3301,7.0,gramm,A zöld csésze a kockás vödör fölött van.,4,1,6.74069
adult_trog,3301,15.0,pragm,Kalapja a libának is van.,1,1,8.140695
adult_trog,3301,3.0,pragm,A hegedűtanár egy sárkány.,4,0,4.962175
